File: output_data/TGA_change_in_mass_per_degree_binned_1C_T.csv
,Temperature,0,1,2,3,4,5,6,7,8,9,10,11,12,13,14,15,16,17,18,19,20,21,22,23,24,25,26,27,28,29,30,31,32
8,41,-0.000173034,-5.745e-05,-9.11002e-05,-0.000119024,-0.000112,-7.94545e-05,-7.68139e-05,-6.94825e-05,-6.675e-05,-0.000103406,-9.09504e-05,-0.000116501,-6.46377e-05,-0.000350086,-6.83786e-05,-0.000197555,-0.000153156,-2.97475e-05,-0.000156465,-0.000257449,-7.25326e-05,-6.04582e-05,-0.000156892,-7.8422e-05,-7.80432e-05,-2.75914e-05,-4.76679e-05,-4.30091e-05,-0.000254122,-2.40336e-05,-7.11972e-05,-0.000182366,-1.37702e-05
17,50,-0.000412528,-0.000151372,-0.0002016,-0.000234269,-0.000254604,-0.00020301,-0.00019593,-0.000170076,-0.000175409,-0.000248835,-0.000224938,-0.000277913,-0.000173333,-0.000881905,-0.000175327,-0.000521193,-0.000342746,-7.94778e-05,-0.000362785,-0.000704631,-0.000158473,-0.000156233,-0.000355484,-0.000186088,-0.000195509,-7.39512e-05,-0.000120632,-0.000115291,-0.000658605,-7.07901e-05,-0.000181745,-0.000445354,-5.08616e-05
26,59,-0.00082796,-0.000334151,-0.000410395,-0.000368194,-0.000587155,-0.000485461,-0.000495947,-0.000374739,-0.000396092,-0.000642227,-0.000545118,-0.00067654,-0.000400125,-0.00144971,-0.000395762,-0.000985193,-0.000701836,-0.000164924,-0.000760271,-0.00116222,-0.000302814,-0.000347549,-0.000768162,-0.000398438,-0.000412573,-0.00015806,-0.000263654,-0.000262367,-0.00106634,-0.000167359,-0.000399025,-0.000887748,-0.000114283
35,68,-0.00119648,-0.000754699,-0.000693004,-0.000545491,-0.000868022,-0.000923952,-0.000879598,-0.000761749,-0.000840767,-0.00103335,-0.00100812,-0.00109585,-0.000903533,-0.00221707,-0.000827688,-0.00146268,-0.000908458,-0.000307252,-0.00111931,-0.00169002,-0.000586781,-0.000727986,-0.00103132,-0.000794838,-0.000708632,-0.000321935,-0.000521683,-0.000543438,-0.00147482,-0.000348223,-0.000721172,-0.00120303,-0.000215988
44,77,-0.00139629,-0.00122126,-0.00092582,-0.000640217,-0.00114713,-0.00146418,-0.00133989,-0.00113967,-0.00131551,-0.00151189,-0.00162479,-0.00165228,-0.00146059,-0.00317021,-0.00135831,-0.00164366,-0.00108757,-0.000607708,-0.00137387,-0.0017552,-0.000796842,-0.00108025,-0.00119559,-0.00109593,-0.000910005,-0.000667052,-0.000701601,-0.000747425,-0.00174481,-0.000682676,-0.000982872,-0.00145263,-0.000370912
53,86,-0.00127804,-0.00182673,-0.00114417,-0.000645652,-0.00136214,-0.00215773,-0.00198133,-0.00152141,-0.0018483,-0.00225606,-0.00243018,-0.0024063,-0.00214539,-0.00406201,-0.00203585,-0.00165233,-0.00127585,-0.00087642,-0.00152318,-0.00186794,-0.000985772,-0.00140824,-0.00124878,-0.00136734,-0.00105895,-0.00094021,-0.000841904,-0.000894042,-0.0018419,-0.000965231,-0.00119078,-0.00158392,-0.000647562
62,95,-0.00108476,-0.00234914,-0.00124705,-0.000643013,-0.00147258,-0.00285544,-0.00263806,-0.00181334,-0.00214289,-0.00305535,-0.00317444,-0.00313959,-0.00264342,-0.00448378,-0.00263794,-0.00162366,-0.00128316,-0.00116014,-0.00156039,-0.00173154,-0.00111812,-0.00157209,-0.00122196,-0.001536,-0.00112159,-0.00115426,-0.000939826,-0.000989169,-0.00168901,-0.00121556,-0.00130496,-0.00153563,-0.000849698
71,104,-0.000925503,-0.00236441,-0.00123119,-0.000648695,-0.00144414,-0.00315695,-0.00300877,-0.00192458,-0.00216104,-0.00356595,-0.00349858,-0.00348471,-0.00254454,-0.00386228,-0.00272661,-0.00143086,-0.00121748,-0.00139274,-0.00150896,-0.00147258,-0.00118126,-0.00156533,-0.00113739,-0.00157783,-0.00106854,-0.0012844,-0.000995924,-0.00102992,-0.00150411,-0.00137718,-0.00130602,-0.00134574,-0.00101652
80,113,-0.000789117,-0.00206274,-0.00110434,-0.000672003,-0.00129173,-0.00288395,-0.00289095,-0.00185802,-0.00198344,-0.00372339,-0.00317599,-0.00324624,-0.00203093,-0.00221195,-0.00253597,-0.00123235,-0.00112361,-0.0015251,-0.00137993,-0.00123223,-0.00118304,-0.0014618,-0.00102503,-0.00152895,-0.000909276,-0.00134356,-0.00100131,-0.00102131,-0.00118756,-0.00141743,-0.00122976,-0.00113156,-0.00112004
89,122,-0.000687018,-0.00154302,-0.00090394,-0.000709717,-0.0010799,-0.00223365,-0.00233188,-0.00167534,-0.00171753,-0.00309569,-0.00213117,-0.00238232,-0.00157916,-0.00127744,-0.00214221,-0.0010766,-0.00102264,-0.00155939,-0.00122364,-0.00104423,-0.00113277,-0.00131946,-0.000914979,-0.00141896,-0.000708001,-0.00134075,-0.000959494,-0.00097231,-0.000955406,-0.0013734,-0.00110864,-0.000942137,-0.00115366
98,131,-0.000615029,-0.00111012,-0.000702109,-0.000734384,-0.000880682,-0.00166122,-0.00177773,-0.00145365,-0.00146234,-0.00193017,-0.00134267,-0.00170253,-0.00122287,-0.000861312,-0.00160177,-0.000959565,-0.000941595,-0.00151899,-0.00107998,-0.000902763,-0.00103709,-0.0011756,-0.000815839,-0.00127237,-0.000528237,-0.00127423,-0.0008819,-0.000886702,-0.000803782,-0.00124767,-0.000976367,-0.000799843,-0.00110852
107,140,-0.000563443,-0.000849754,-0.000548545,-0.000718329,-0.000732055,-0.00126509,-0.001366,-0.00122638,-0.00123055,-0.0012495,-0.000956717,-0.00125877,-0.000982719,-0.000677376,-0.00125909,-0.000874384,-0.000889051,-0.00142481,-0.000947074,-0.000778949,-0.000914717,-0.00103234,-0.000733318,-0.00111251,-0.000417837,-0.00115984,-0.000770964,-0.000775107,-0.00070368,-0.00109147,-0.000858141,-0.000702531,-0.00102597
116,149,-0.000535397,-0.000697578,-0.000443027,-0.000657374,-0.000627429,-0.00101166,-0.00108934,-0.00103296,-0.00103789,-0.000909012,-0.00075575,-0.00099659,-0.000819692,-0.000590833,-0.00104611,-0.000818299,-0.000857199,-0.0012888,-0.000830302,-0.000678,-0.000769177,-0.000892193,-0.000676793,-0.000959535,-0.000356298,-0.00101301,-0.000647807,-0.000655446,-0.00063785,-0.000922596,-0.000761098,-0.00064473,-0.000903187
125,158,-0.000529635,-0.000602335,-0.000394024,-0.000588657,-0.000572778,-0.0008424,-0.000903876,-0.000873267,-0.000895295,-0.00073398,-0.000634364,-0.000823821,-0.000721578,-0.000556535,-0.000913732,-0.000792767,-0.000855689,-0.0011511,-0.000742847,-0.000594751,-0.000626173,-0.000768242,-0.000632188,-0.000828497,-0.000301575,-0.000843607,-0.000521439,-0.000531182,-0.000597349,-0.000771434,-0.000670053,-0.000618891,-0.000786419
134,167,-0.000541247,-0.000551854,-0.00036028,-0.000548035,-0.000539151,-0.000729884,-0.000770457,-0.000752897,-0.000777808,-0.00064152,-0.000578723,-0.000721328,-0.000659579,-0.00054711,-0.000838101,-0.000780931,-0.000861928,-0.00100802,-0.000671697,-0.000521481,-0.000498402,-0.000661413,-0.000608446,-0.000718604,-0.00027257,-0.000681997,-0.000403087,-0.000426073,-0.000571008,-0.000655213,-0.000592587,-0.000615404,-0.000672456
143,176,-0.000561697,-0.00052121,-0.000331473,-0.000550071,-0.000523043,-0.000662733,-0.000691062,-0.000666754,-0.000700508,-0.000594988,-0.000552315,-0.000658679,-0.000625465,-0.000550419,-0.000791647,-0.000780349,-0.000875421,-0.000883541,-0.00062826,-0.000464576,-0.000409938,-0.000565893,-0.000590479,-0.000629986,-0.000260005,-0.000528327,-0.00034321,-0.000369361,-0.000548007,-0.000573217,-0.000543421,-0.000619534,-0.00057318
152,185,-0.000585814,-0.000517963,-0.000311447,-0.000566199,-0.000515326,-0.000626185,-0.000640409,-0.000611398,-0.000654077,-0.000576328,-0.000559359,-0.000625548,-0.000609548,-0.000558631,-0.000765272,-0.000781133,-0.000859717,-0.000764911,-0.000573884,-0.000426317,-0.000364655,-0.000500519,-0.000568148,-0.000551805,-0.000260941,-0.000407877,-0.000263524,-0.000295741,-0.000528824,-0.000515477,-0.000507419,-0.000624603,-0.000502242
161,194,-0.000604387,-0.00050816,-0.000293945,-0.000620063,-0.000516447,-0.000605432,-0.000619587,-0.000572976,-0.000617497,-0.000564323,-0.000580348,-0.000610343,-0.000618875,-0.000572095,-0.000753229,-0.000750759,-0.000810787,-0.0006774,-0.000511681,-0.000376049,-0.000314821,-0.000449156,-0.000544855,-0.000487898,-0.000272025,-0.000342219,-0.000203301,-0.000240408,-0.000508882,-0.000473167,-0.000469043,-0.000609561,-0.000451964
170,203,-0.000617373,-0.000500556,-0.000283367,-0.000711775,-0.000526489,-0.000596329,-0.000602136,-0.000540522,-0.000604618,-0.000551275,-0.000601761,-0.000590504,-0.000619104,-0.000578133,-0.000725971,-0.000661386,-0.000713782,-0.000587407,-0.000450696,-0.000335047,-0.000286592,-0.000411363,-0.000508279,-0.000457128,-0.000289402,-0.000279739,-0.000161507,-0.000202318,-0.000473183,-0.000441142,-0.000439113,-0.000565728,-0.000416237
179,212,-0.00064878,-0.000489413,-0.000278361,-0.000918484,-0.000563896,-0.000548967,-0.000575074,-0.000515618,-0.000568615,-0.000525771,-0.000598746,-0.000553792,-0.000592921,-0.000522751,-0.000674691,-0.000527518,-0.000574261,-0.000510735,-0.000406554,-0.000307228,-0.000272718,-0.000368743,-0.000473885,-0.000413316,-0.000306278,-0.000242887,-0.000133529,-0.000179469,-0.000438776,-0.000407088,-0.000403696,-0.000523382,-0.000381701
188,221,-0.000796625,-0.000514193,-0.000281691,-0.00130426,-0.000637952,-0.000493477,-0.00052441,-0.000485757,-0.000510415,-0.000480332,-0.00056399,-0.000499129,-0.000555637,-0.000425937,-0.000576397,-0.000437652,-0.000467754,-0.000435598,-0.000378772,-0.000294183,-0.000255229,-0.000323113,-0.000446485,-0.000377977,-0.000318059,-0.000225285,-0.000118514,-0.000168727,-0.000389903,-0.000379439,-0.000365174,-0.000493323,-0.000345075
197,230,-0.000921597,-0.000622988,-0.000287667,-0.00153951,-0.000723449,-0.000448964,-0.000464848,-0.000463088,-0.000468262,-0.000431208,-0.000486921,-0.000453392,-0.00052294,-0.000352388,-0.000450613,-0.000401405,-0.000426618,-0.000401228,-0.000363341,-0.00029068,-0.000230866,-0.000285118,-0.000429929,-0.000349787,-0.000322371,-0.000215034,-0.000113638,-0.000163654,-0.000357032,-0.000356102,-0.000329187,-0.000472428,-0.000316669
206,239,-0.000980394,-0.000697201,-0.000296771,-0.00153143,-0.0008712,-0.00042691,-0.00042964,-0.000445712,-0.000442988,-0.00039641,-0.000431963,-0.000416607,-0.000509532,-0.000317841,-0.000396349,-0.000372331,-0.000404179,-0.000371088,-0.000358722,-0.000290933,-0.000209031,-0.000262359,-0.000421908,-0.000328958,-0.000319671,-0.00020967,-0.000115731,-0.00016214,-0.000339155,-0.000342742,-0.000300891,-0.000458186,-0.000291541
215,248,-0.00117344,-0.000871036,-0.000315646,-0.00157959,-0.00104942,-0.000404474,-0.000413493,-0.000434915,-0.000429855,-0.000374982,-0.000396722,-0.000397895,-0.000481652,-0.000303213,-0.000362618,-0.000361123,-0.000389773,-0.000348649,-0.000358594,-0.000294759,-0.00019313,-0.000249549,-0.000417416,-0.00031175,-0.000313595,-0.000209352,-0.000119205,-0.000162588,-0.000329954,-0.000335386,-0.000285216,-0.000438405,-0.00027214
224,257,-0.00146393,-0.00118988,-0.000340073,-0.00166661,-0.000997386,-0.000395657,-0.000403128,-0.000421102,-0.000423473,-0.000358882,-0.000373377,-0.000391962,-0.000453697,-0.000300784,-0.000343703,-0.00036119,-0.0003869,-0.000340845,-0.000365908,-0.000299069,-0.000182774,-0.000243804,-0.000413117,-0.000294471,-0.000302337,-0.000204544,-0.000121542,-0.000162972,-0.000328137,-0.000328199,-0.000272883,-0.000417685,-0.000256735
233,266,-0.0014343,-0.00139551,-0.00034736,-0.00144909,-0.000848155,-0.00038915,-0.000395105,-0.000418897,-0.000416166,-0.000355508,-0.000362564,-0.000385487,-0.000435877,-0.000304693,-0.000341118,-0.000364471,-0.000388361,-0.000335003,-0.000373768,-0.000305799,-0.000175746,-0.000241122,-0.000412668,-0.000274613,-0.000291471,-0.000201766,-0.000124031,-0.000161623,-0.000325906,-0.00032953,-0.000269461,-0.000397152,-0.000251189
242,275,-0.000820436,-0.00128129,-0.000350933,-0.000676544,-0.000624789,-0.000386458,-0.000393211,-0.000406636,-0.00040792,-0.000350552,-0.000355497,-0.00038247,-0.000428349,-0.000305919,-0.00034248,-0.00037316,-0.000394612,-0.000338074,-0.000386086,-0.000308898,-0.000172194,-0.000243123,-0.000406829,-0.000257479,-0.000279012,-0.000196995,-0.000125097,-0.000159391,-0.000325837,-0.0003286,-0.000265512,-0.000378544,-0.000244227
251,284,-0.000499382,-0.000722358,-0.000420844,-0.000471218,-0.000569696,-0.000380816,-0.000386833,-0.000399318,-0.000406963,-0.000347016,-0.000350126,-0.000379307,-0.000421987,-0.000306983,-0.00034902,-0.000382127,-0.000403128,-0.000344449,-0.000397667,-0.000319328,-0.00017002,-0.000243223,-0.000400283,-0.000242351,-0.000267779,-0.000190161,-0.000127353,-0.00015549,-0.000325745,-0.000329277,-0.000260063,-0.000359725,-0.0002405
260,293,-0.000469179,-0.000471315,-0.000543902,-0.000448606,-0.000554794,-0.000378269,-0.000385717,-0.000388901,-0.000395679,-0.000345182,-0.000349608,-0.000376952,-0.000415194,-0.000310361,-0.000357847,-0.000390129,-0.000408885,-0.000354177,-0.000412484,-0.000332811,-0.000171023,-0.000249549,-0.000395984,-0.000221309,-0.000257087,-0.000183327,-0.000126703,-0.000153103,-0.000324603,-0.000327545,-0.000256705,-0.000340388,-0.000234639
269,302,-0.000447201,-0.000456925,-0.000617383,-0.000442231,-0.00053241,-0.000372615,-0.000374558,-0.000375257,-0.00038976,-0.000340013,-0.000348949,-0.000367872,-0.000408574,-0.00031515,-0.000367346,-0.000398872,-0.000415081,-0.000366708,-0.00042423,-0.000358372,-0.000172298,-0.000255233,-0.000386838,-0.000196314,-0.000246112,-0.000173692,-0.000125849,-0.000147455,-0.000323537,-0.000326359,-0.000253939,-0.000321993,-0.000235829
278,311,-0.00044157,-0.000439351,-0.000635653,-0.000440352,-0.000517267,-0.000364224,-0.00036737,-0.00036368,-0.000376569,-0.000334894,-0.000346404,-0.000362802,-0.000398086,-0.000322836,-0.000375669,-0.000410014,-0.000421123,-0.000379714,-0.000437126,-0.000394781,-0.000175641,-0.0002625,-0.000377375,-0.000168408,-0.000235528,-0.000165825,-0.000123167,-0.000144066,-0.000324756,-0.000324732,-0.000248955,-0.000304558,-0.000234145
287,320,-0.000436057,-0.000427265,-0.000617567,-0.000440978,-0.000495622,-0.000354415,-0.000354216,-0.000349045,-0.000365111,-0.000328403,-0.000341528,-0.000354685,-0.000385235,-0.000337659,-0.00039242,-0.000428887,-0.000434106,-0.000389437,-0.000447296,-0.000447936,-0.00018051,-0.000271407,-0.000364541,-0.000144857,-0.000224227,-0.000156766,-0.000120343,-0.000138971,-0.000324549,-0.000319912,-0.000243273,-0.000288109,-0.000227434
296,329,-0.000441679,-0.000422154,-0.000593805,-0.000441537,-0.000475338,-0.000347666,-0.000346702,-0.000334811,-0.000349826,-0.000322796,-0.000337735,-0.000345439,-0.000370839,-0.000352672,-0.000411985,-0.000458521,-0.000451247,-0.000398605,-0.000455937,-0.000530401,-0.000188763,-0.000285299,-0.000351836,-0.000124549,-0.00021458,-0.000149058,-0.00011756,-0.000135177,-0.000326475,-0.000313163,-0.000232263,-0.000273091,-0.000220851
305,338,-0.000451632,-0.00042163,-0.000561727,-0.00044534,-0.00046141,-0.00033775,-0.000335685,-0.00031916,-0.00033912,-0.000316328,-0.00033684,-0.000333593,-0.000363007,-0.00036794,-0.000445696,-0.000492885,-0.000470972,-0.000409287,-0.000467827,-0.00058537,-0.000198793,-0.000302373,-0.000339002,-0.000106228,-0.000204171,-0.000143296,-0.000112399,-0.000128894,-0.000330092,-0.000303593,-0.000227708,-0.000258026,-0.000218785
314,347,-0.000452527,-0.000411011,-0.000533344,-0.000441068,-0.000432129,-0.000321865,-0.000322164,-0.000303938,-0.000321629,-0.000311,-0.00033366,-0.000326115,-0.000345011,-0.000376523,-0.000480015,-0.000523654,-0.000485603,-0.000412038,-0.000476168,-0.000641853,-0.000212903,-0.000321249,-0.000322383,-9.01745e-05,-0.000193345,-0.000137396,-0.000107401,-0.0001229,-0.000326573,-0.000294778,-0.000216663,-0.000242069,-0.000210387
323,356,-0.000444439,-0.000401139,-0.000500611,-0.000429212,-0.000417886,-0.000311971,-0.000308053,-0.000290463,-0.000304436,-0.000303229,-0.000329867,-0.000315423,-0.000335354,-0.000364504,-0.000508577,-0.000547871,-0.000493916,-0.000422592,-0.000488198,-0.000712548,-0.000233206,-0.00035848,-0.000305763,-7.57422e-05,-0.000182134,-0.000131535,-0.000102077,-0.000118254,-0.000315003,-0.000286661,-0.000205564,-0.000274733,-0.000198004
332,365,-0.000432316,-0.000390441,-0.000471652,-0.000407693,-0.000401423,-0.000294785,-0.000295651,-0.000270552,-0.000286192,-0.000290904,-0.000322353,-0.000299727,-0.000319954,-0.000340851,-0.000522973,-0.00055825,-0.000492821,-0.000429415,-0.00049455,-0.000773533,-0.000258719,-0.000414189,-0.000288887,-6.43098e-05,-0.000169896,-0.000124701,-9.72537e-05,-0.000111902,-0.000293976,-0.000273027,-0.000197318,-0.000202618,-0.000190873
341,374,-0.000408025,-0.000376889,-0.000452454,-0.000379889,-0.000381002,-0.000281391,-0.000278404,-0.000256411,-0.000267854,-0.000276845,-0.000308949,-0.000283738,-0.000304711,-0.000306775,-0.00052436,-0.000544621,-0.000475351,-0.00043547,-0.000492368,-0.000819698,-0.00029447,-0.000486847,-0.000269501,-5.38716e-05,-0.000156721,-0.000119715,-9.15323e-05,-0.000105026,-0.000270496,-0.0002625,-0.000182217,-0.000191595,-0.000179196
350,383,-0.000375199,-0.000364656,-0.000436285,-0.000346263,-0.000363715,-0.000261602,-0.000259874,-0.000239452,-0.000251554,-0.000261513,-0.000293613,-0.000264904,-0.000291151,-0.000275244,-0.000506496,-0.000517609,-0.00045041,-0.000438235,-0.000478157,-0.000855468,-0.000346551,-0.000564232,-0.000249872,-4.45595e-05,-0.000143403,-0.000115364,-8.67982e-05,-0.000100669,-0.000246804,-0.000245208,-0.000167666,-0.000174982,-0.000167564
359,392,-0.000342598,-0.00035125,-0.000419277,-0.000312939,-0.000341991,-0.000243676,-0.000245009,-0.000222898,-0.000230443,-0.000240736,-0.000279136,-0.00024244,-0.000269809,-0.000247299,-0.000473248,-0.000477821,-0.000431982,-0.000441099,-0.000453519,-0.000848116,-0.000441109,-0.000648722,-0.00023075,-3.88415e-05,-0.00013046,-0.00010861,-8.12514e-05,-9.49354e-05,-0.000226379,-0.000234174,-0.00015415,-0.000160222,-0.000156718
368,401,-0.00031459,-0.000331176,-0.000407235,-0.000286455,-0.000322346,-0.000226558,-0.000227028,-0.000207721,-0.000209771,-0.000224925,-0.000264261,-0.000224685,-0.000255351,-0.000225368,-0.000434872,-0.00044339,-0.000410527,-0.000429799,-0.000416178,-0.000743225,-0.000567501,-0.000754611,-0.000212847,-3.3942e-05,-0.000117198,-0.000100047,-7.68424e-05,-9.02462e-05,-0.00020797,-0.000218595,-0.000138902,-0.000145364,-0.000143002
377,410,-0.000288989,-0.000310133,-0.000391348,-0.000263437,-0.000305483,-0.000208061,-0.00020754,-0.000192236,-0.000197147,-0.000207349,-0.000251776,-0.000203593,-0.000241827,-0.000210516,-0.000402718,-0.000417006,-0.000387212,-0.000405087,-0.000377136,-0.000579032,-0.000696004,-0.000854076,-0.000196292,-3.00838e-05,-0.000104568,-9.25576e-05,-7.09705e-05,-8.4627e-05,-0.00019512,-0.00020162,-0.000127793,-0.000134058,-0.000130377
386,419,-0.000268168,-0.000287615,-0.000365912,-0.000242164,-0.000286134,-0.000194878,-0.000194243,-0.000178234,-0.000183365,-0.000194785,-0.000242,-0.000185497,-0.000226366,-0.000197515,-0.000373126,-0.000382971,-0.000364632,-0.000377412,-0.000343094,-0.000454043,-0.000839425,-0.000945971,-0.000184805,-2.61547e-05,-9.28308e-05,-8.36971e-05,-6.82476e-05,-7.80329e-05,-0.000185092,-0.000189677,-0.00012019,-0.000124367,-0.000119801
395,428,-0.000249616,-0.000268868,-0.000339548,-0.0002225,-0.000270416,-0.000178612,-0.000178894,-0.000165708,-0.000174092,-0.000183152,-0.000240775,-0.000173455,-0.000218838,-0.00018803,-0.000342127,-0.000355631,-0.000342967,-0.000345174,-0.000310954,-0.000411797,-0.00098339,-0.000984363,-0.000175116,-2.34091e-05,-8.07234e-05,-7.95451e-05,-6.48751e-05,-7.22353e-05,-0.000174672,-0.000177607,-0.000112988,-0.000116905,-0.000107405
404,437,-0.000233662,-0.000250393,-0.000316413,-0.00020586,-0.000253492,-0.000170109,-0.000169665,-0.000154932,-0.000163548,-0.000173147,-0.000236912,-0.000158937,-0.000212628,-0.00017843,-0.000315142,-0.000326916,-0.000319761,-0.00031027,-0.000288755,-0.000371785,-0.00108178,-0.000916366,-0.000167608,-2.17995e-05,-7.12291e-05,-7.03072e-05,-6.1096e-05,-6.70558e-05,-0.000167565,-0.000163761,-0.000108743,-0.000111297,-9.84903e-05
413,446,-0.00021939,-0.000236715,-0.000296026,-0.000191902,-0.00024115,-0.000165509,-0.000163923,-0.000147193,-0.000160357,-0.000165167,-0.000237205,-0.000148024,-0.000204087,-0.000170425,-0.000290216,-0.000300869,-0.000298285,-0.000281166,-0.00026909,-0.000352702,-0.00107508,-0.000746444,-0.000164464,-1.98823e-05,-6.18654e-05,-6.38109e-05,-5.85156e-05,-6.25371e-05,-0.000159031,-0.000158455,-0.000104646,-0.000107167,-8.93509e-05
422,455,-0.000204853,-0.000225781,-0.000278966,-0.000180404,-0.000227947,-0.000160259,-0.000160848,-0.00014158,-0.000158045,-0.000162351,-0.000238066,-0.000144101,-0.000198105,-0.00016411,-0.000266341,-0.000279798,-0.000279216,-0.000256284,-0.000253691,-0.000335739,-0.000948642,-0.000572339,-0.000160999,-1.6829e-05,-5.19574e-05,-5.94005e-05,-5.39644e-05,-5.82955e-05,-0.000151924,-0.000148922,-9.67687e-05,-0.000103881,-8.09076e-05
431,464,-0.000191801,-0.000217151,-0.000263402,-0.000170294,-0.000215524,-0.000159508,-0.000156959,-0.000130196,-0.000161005,-0.000156884,-0.000236629,-0.000139613,-0.000190533,-0.000156915,-0.000249066,-0.000261394,-0.000263104,-0.000236796,-0.000241533,-0.000322855,-0.000764538,-0.00045428,-0.000161063,-1.53141e-05,-4.29857e-05,-5.14486e-05,-4.8763e-05,-5.318e-05,-0.000144172,-0.000143595,-9.08342e-05,-0.000100948,-7.87294e-05
440,473,-0.000176392,-0.00020783,-0.00024923,-0.000161435,-0.000206743,-0.000159429,-0.000160013,-0.000129795,-0.000161259,-0.000151742,-0.000229232,-0.000137651,-0.000185179,-0.000149675,-0.000231853,-0.00024716,-0.000252245,-0.000219483,-0.000233127,-0.000310086,-0.000612007,-0.000395851,-0.000161256,-1.60005e-05,-3.57561e-05,-4.42226e-05,-4.46182e-05,-4.80006e-05,-0.000137111,-0.000136725,-8.55544e-05,-9.96107e-05,-7.44628e-05
449,482,-0.000160722,-0.000199159,-0.000235685,-0.000153562,-0.000197801,-0.000162481,-0.000160441,-0.000127286,-0.000160866,-0.000151694,-0.000219157,-0.000132378,-0.000178918,-0.00014366,-0.00022042,-0.000235593,-0.000240051,-0.00020701,-0.000226038,-0.000295981,-0.000500721,-0.00035904,-0.000166197,-1.63792e-05,-3.17929e-05,-4.02901e-05,-4.2688e-05,-4.38442e-05,-0.000130142,-0.000130235,-8.13094e-05,-9.93761e-05,-6.91408e-05
458,491,-0.000149054,-0.000195619,-0.000221352,-0.000146448,-0.000188607,-0.000160977,-0.000157366,-0.000124315,-0.000160519,-0.000145284,-0.000211635,-0.00012946,-0.00016755,-0.000135609,-0.000211636,-0.000228151,-0.000232564,-0.000194836,-0.000221739,-0.000282844,-0.000420256,-0.000321509,-0.000167031,-1.48644e-05,-2.73941e-05,-3.53423e-05,-3.97216e-05,-3.99436e-05,-0.000122505,-0.000126642,-7.44079e-05,-9.86721e-05,-6.69402e-05
467,500,-0.000138809,-0.000187617,-0.000208715,-0.000138613,-0.000177177,-0.000160439,-0.000154617,-0.000123047,-0.000158322,-0.000142273,-0.000196465,-0.000125929,-0.000155853,-0.00012978,-0.000204436,-0.000222547,-0.000226937,-0.000187778,-0.000216221,-0.000270586,-0.00038369,-0.000294326,-0.000171605,-1.40596e-05,-2.4389e-05,-3.21041e-05,-3.68974e-05,-3.65584e-05,-0.00011526,-0.000117911,-6.82788e-05,-9.90945e-05,-6.11017e-05
476,509,-0.000129402,-0.000183009,-0.000196804,-0.000130969,-0.000167315,-0.000152945,-0.000154372,-0.000120453,-0.00015127,-0.000133781,-0.00017981,-0.000120215,-0.000145132,-0.000121475,-0.000194654,-0.000219722,-0.000221935,-0.000185689,-0.000214903,-0.000258689,-0.000338808,-0.00027479,-0.000171843,-1.34442e-05,-2.27123e-05,-2.88659e-05,-3.56376e-05,-3.34123e-05,-0.00010837,-0.000112944,-6.04435e-05,-9.97046e-05,-5.93951e-05
485,518,-0.000123771,-0.00017639,-0.000186852,-0.000123453,-0.000158653,-0.000143298,-0.000146254,-0.000115814,-0.000143963,-0.000127452,-0.000164074,-0.000112885,-0.000129012,-0.000113656,-0.000192574,-0.000218445,-0.000216232,-0.000179037,-0.000210735,-0.000245898,-0.00030803,-0.000256374,-0.000174859,-1.17637e-05,-2.3518e-05,-2.68991e-05,-3.46218e-05,-3.13112e-05,-0.000102287,-0.000105968,-5.72333e-05,-0.000100129,-5.54429e-05
494,527,-0.000120279,-0.000167299,-0.000176496,-0.000115691,-0.000153042,-0.000136298,-0.000133704,-0.000113769,-0.000134783,-0.000117122,-0.000150623,-0.000105819,-0.000117023,-0.000106489,-0.000183284,-0.000215262,-0.000214371,-0.000178998,-0.000206725,-0.000232714,-0.000288076,-0.000233595,-0.000173833,-1.06512e-05,-2.16017e-05,-2.37999e-05,-3.21226e-05,-2.93929e-05,-9.63756e-05,-9.71303e-05,-5.09609e-05,-9.86721e-05,-5.41854e-05
503,536,-0.000119188,-0.000152699,-0.000171449,-0.000109286,-0.00014649,-0.000126397,-0.000121873,-0.000106557,-0.000122944,-0.000109119,-0.000135947,-9.74323e-05,-0.000100523,-9.73695e-05,-0.000180485,-0.000210397,-0.00021298,-0.000177523,-0.000201913,-0.000222425,-0.000273805,-0.000205452,-0.000167993,-1.13377e-05,-1.76167e-05,-2.47653e-05,-2.90953e-05,-2.76877e-05,-8.93368e-05,-8.73237e-05,-4.40971e-05,-9.63725e-05,-5.29953e-05
512,545,-0.000119799,-0.000136713,-0.000165918,-0.000104731,-0.000140649,-0.000113727,-0.000107843,-9.89017e-05,-0.000111082,-0.000100557,-0.000122472,-8.69607e-05,-8.94717e-05,-8.92264e-05,-0.000176034,-0.000206362,-0.000208394,-0.000177864,-0.000194901,-0.000213861,-0.000263232,-0.000195656,-0.00015856,-1.10082e-05,-1.60271e-05,-2.57866e-05,-2.96672e-05,-2.56569e-05,-8.17697e-05,-7.96927e-05,-3.83104e-05,-9.25607e-05,-4.80326e-05
521,554,-0.000123267,-0.000118431,-0.000160656,-9.97563e-05,-0.000134188,-9.87403e-05,-9.68671e-05,-9.11836e-05,-0.000101093,-8.92726e-05,-0.000107278,-7.4282e-05,-7.94853e-05,-7.99036e-05,-0.000170717,-0.000200445,-0.000203271,-0.000182961,-0.000187189,-0.000209425,-0.000253725,-0.000189999,-0.000147523,-1.13377e-05,-1.35011e-05,-2.30848e-05,-3.17976e-05,-2.66859e-05,-7.51914e-05,-6.91594e-05,-3.26082e-05,-8.71741e-05,-4.6775e-05
530,563,-0.000126216,-0.000106533,-0.000154452,-9.53581e-05,-0.000127086,-8.37307e-05,-8.10654e-05,-8.50443e-05,-8.55547e-05,-7.83374e-05,-9.75727e-05,-6.32954e-05,-6.74206e-05,-7.27196e-05,-0.000163298,-0.000193989,-0.000196896,-0.000186414,-0.000179682,-0.000201876,-0.000241,-0.0001908,-0.000131417,-1.23554e-05,-1.28913e-05,-1.92926e-05,-3.83602e-05,-2.83659e-05,-6.76469e-05,-6.30143e-05,-2.83352e-05,-8.0933e-05,-4.3025e-05
539,572,-0.000126391,-0.000101255,-0.000145832,-9.14696e-05,-0.000118663,-7.62393e-05,-6.90308e-05,-7.49671e-05,-7.35335e-05,-6.73325e-05,-8.91629e-05,-5.47869e-05,-6.31625e-05,-6.51443e-05,-0.000156634,-0.000186928,-0.000188954,-0.000185945,-0.000169352,-0.00019716,-0.000227245,-0.00019154,-0.000116017,-1.37519e-05,-1.12364e-05,-1.89724e-05,-5.2725e-05,-3.15305e-05,-6.14366e-05,-5.22124e-05,-2.31257e-05,-7.31417e-05,-3.94545e-05
548,581,-0.0001234,-9.93907e-05,-0.000134083,-8.80212e-05,-0.000109863,-6.19006e-05,-5.9088e-05,-6.59626e-05,-6.28712e-05,-6.17486e-05,-8.0706e-05,-4.76614e-05,-5.55333e-05,-6.11312e-05,-0.00015115,-0.00018168,-0.000181729,-0.000180593,-0.000159927,-0.000192404,-0.000212791,-0.000193782,-9.96944e-05,-1.34442e-05,-1.07138e-05,-1.57739e-05,-5.08761e-05,-3.36771e-05,-5.55441e-05,-4.80059e-05,-1.75713e-05,-6.62317e-05,-3.49582e-05
557,590,-0.000116089,-9.67515e-05,-0.000121991,-8.42357e-05,-9.97606e-05,-5.49333e-05,-5.21291e-05,-5.73273e-05,-5.7761e-05,-5.5072e-05,-7.38061e-05,-4.34558e-05,-4.82083e-05,-5.57058e-05,-0.000145462,-0.00017507,-0.000176979,-0.000176921,-0.000147024,-0.00019052,-0.00019779,-0.000198246,-8.4895e-05,-1.29472e-05,-1.11711e-05,-1.51779e-05,-3.63081e-05,-3.02909e-05,-5.15317e-05,-4.04147e-05,-1.74023e-05,-5.87105e-05,-3.05621e-05
566,599,-0.00010522,-9.24365e-05,-0.000110941,-8.15958e-05,-9.02786e-05,-4.70822e-05,-4.81383e-05,-5.62114e-05,-5.22577e-05,-4.92314e-05,-7.08225e-05,-3.69346e-05,-4.41022e-05,-5.41926e-05,-0.000141109,-0.000169985,-0.000170345,-0.000172555,-0.000137079,-0.000188729,-0.000184563,-0.000200451,-7.59114e-05,-1.34916e-05,-1.0692e-05,-1.38866e-05,-2.98674e-05,-2.52578e-05,-4.73137e-05,-3.59031e-05,-1.50158e-05,-5.21636e-05,-2.83165e-05
575,608,-9.08939e-05,-8.11464e-05,-0.000102107,-8.04807e-05,-8.11636e-05,-4.14615e-05,-4.24881e-05,-4.98305e-05,-4.81187e-05,-4.51392e-05,-6.63332e-05,-3.31069e-05,-4.3798e-05,-5.25828e-05,-0.000134484,-0.000161671,-0.000161785,-0.000169378,-0.000126836,-0.000185628,-0.000171388,-0.000198475,-6.56444e-05,-1.43196e-05,-8.99346e-06,-1.10255e-05,-2.49364e-05,-2.34863e-05,-4.44386e-05,-3.25958e-05,-1.16156e-05,-4.55549e-05,-2.19314e-05
584,617,-7.52756e-05,-7.2328e-05,-9.49199e-05,-7.88052e-05,-7.48754e-05,-3.7266e-05,-4.08333e-05,-4.8169e-05,-4.52053e-05,-4.29808e-05,-6.45695e-05,-3.223e-05,-3.73743e-05,-4.76784e-05,-0.000126372,-0.000151507,-0.000152188,-0.000165885,-0.000118825,-0.000178137,-0.000162582,-0.000199927,-5.978e-05,-1.35626e-05,-1.11928e-05,-1.12066e-05,-2.27614e-05,-2.2359e-05,-4.0485e-05,-2.92545e-05,-8.93347e-06,-3.91169e-05,-2.3803e-05
593,626,-6.10673e-05,-5.87801e-05,-8.99916e-05,-7.73512e-05,-6.98419e-05,-3.19303e-05,-3.91932e-05,-4.58238e-05,-4.11478e-05,-4.30357e-05,-5.88687e-05,-2.754e-05,-3.94639e-05,-4.75396e-05,-0.000121244,-0.000140531,-0.000141929,-0.000159854,-0.000112313,-0.000168792,-0.000152803,-0.000196024,-5.46716e-05,-1.14195e-05,-1.05178e-05,-1.17013e-05,-2.11916e-05,-1.99079e-05,-3.79318e-05,-2.61274e-05,-1.11932e-05,-3.33905e-05,-1.91322e-05
602,635,-4.95217e-05,-4.89574e-05,-8.67673e-05,-7.58833e-05,-6.37158e-05,-2.90272e-05,-3.57779e-05,-4.44109e-05,-4.02983e-05,-3.67935e-05,-5.87745e-05,-2.74174e-05,-3.51089e-05,-4.50181e-05,-0.000109832,-0.000130008,-0.000130576,-0.000151132,-0.000109194,-0.000155316,-0.000143532,-0.000189599,-5.46779e-05,-1.03672e-05,-1.14759e-05,-1.22178e-05,-1.95662e-05,-1.83732e-05,-3.41551e-05,-2.41913e-05,-8.21541e-06,-2.65644e-05,-2.07939e-05
611,644,-4.25594e-05,-4.09149e-05,-8.37071e-05,-7.39505e-05,-5.92811e-05,-2.67436e-05,-3.20108e-05,-4.23443e-05,-3.97213e-05,-3.65635e-05,-5.21786e-05,-2.67552e-05,-3.21895e-05,-4.16174e-05,-0.000101304,-0.000119276,-0.000118554,-0.000141506,-0.000107526,-0.000139288,-0.000131616,-0.000180531,-4.76772e-05,-7.92926e-06,-9.99515e-06,-7.79675e-06,-1.89247e-05,-1.82453e-05,-3.02698e-05,-2.22261e-05,-5.95565e-06,-1.99456e-05,-1.61474e-05
620,653,-3.77142e-05,-3.69666e-05,-8.00764e-05,-7.1334e-05,-5.37855e-05,-2.61139e-05,-3.11365e-05,-4.11845e-05,-3.68939e-05,-3.83958e-05,-4.90926e-05,-2.44255e-05,-3.09729e-05,-3.95828e-05,-9.1569e-05,-0.000108496,-0.000105874,-0.000124883,-0.00011103,-0.000123324,-0.000119888,-0.000162356,-5.14632e-05,-9.23108e-06,-1.09315e-05,-1.07676e-05,-1.74361e-05,-1.73501e-05,-2.69493e-05,-1.89614e-05,-7.60295e-06,-1.6989e-05,-1.39935e-05
629,662,-3.46114e-05,-3.38384e-05,-7.80465e-05,-6.71811e-05,-4.92347e-05,-2.27073e-05,-3.01824e-05,-4.08433e-05,-3.22981e-05,-3.40492e-05,-4.49902e-05,-1.50277e-05,-3.07091e-05,-3.73567e-05,-7.9316e-05,-9.83996e-05,-9.37091e-05,-0.000112928,-0.000111027,-0.000108371,-0.000106262,-0.000142487,-4.88886e-05,-8.87604e-06,-9.99515e-06,-9.6948e-06,-1.63439e-05,-1.6391e-05,-2.41152e-05,-1.90449e-05,-4.94192e-06,-1.28121e-05,-1.73806e-05
638,671,-3.44307e-05,-2.9142e-05,-7.59493e-05,-6.5011e-05,-4.5066e-05,-2.12468e-05,-2.67741e-05,-3.64086e-05,-2.92505e-05,-3.19678e-05,-4.12246e-05,-1.84172e-05,-2.93836e-05,-3.35286e-05,-7.15909e-05,-8.80463e-05,-8.31888e-05,-9.45321e-05,-0.000111634,-9.5858e-05,-9.45579e-05,-0.000124415,-4.68587e-05,-7.76357e-06,-1.03218e-05,-1.11239e-05,-1.5848e-05,-1.629e-05,-1.96254e-05,-1.98915e-05,-4.01267e-06,-8.79954e-06,-1.50453e-05
647,680,-3.48787e-05,-2.88844e-05,-7.53255e-05,-6.13733e-05,-3.97115e-05,-1.7621e-05,-2.36252e-05,-3.46113e-05,-2.6152e-05,-2.91423e-05,-3.38011e-05,-1.70684e-05,-2.69429e-05,-3.22657e-05,-6.42262e-05,-7.86709e-05,-7.63254e-05,-8.00122e-05,-0.00010828,-8.47471e-05,-8.40595e-05,-0.000108323,-4.6073e-05,-8.07128e-06,-9.34187e-06,-1.11649e-05,-1.53164e-05,-1.47501e-05,-1.94591e-05,-1.75208e-05,-6.8849e-06,-1.04186e-05,-1.22195e-05
656,689,-3.26511e-05,-2.50547e-05,-7.64878e-05,-5.88534e-05,-3.59012e-05,-1.84872e-05,-2.29111e-05,-3.28306e-05,-2.44538e-05,-2.96141e-05,-3.13635e-05,-1.00056e-05,-2.6588e-05,-2.96805e-05,-5.69477e-05,-7.12725e-05,-7.12406e-05,-6.68366e-05,-0.000106176,-7.75017e-05,-7.2106e-05,-9.17577e-05,-3.9207e-05,-8.14228e-06,-1.15191e-05,-1.19596e-05,-1.56042e-05,-1.31298e-05,-1.6929e-05,-1.60654e-05,-1.71066e-06,-8.86993e-06,-8.48822e-06
665,698,-3.57936e-05,-2.28501e-05,-7.42933e-05,-5.60657e-05,-3.24267e-05,-1.37308e-05,-1.93019e-05,-3.27041e-05,-1.85211e-05,-2.64011e-05,-2.89986e-05,-1.04961e-05,-2.71328e-05,-2.80922e-05,-5.38186e-05,-6.65886e-05,-6.73491e-05,-5.81028e-05,-0.000105125,-7.06134e-05,-6.58393e-05,-8.21687e-05,-3.77953e-05,-8.19506e-06,-1.07138e-05,-9.07895e-06,-1.70264e-05,-1.48776e-05,-1.75232e-05,-1.30003e-05,-4.88168e-06,-1.07049e-05,-1.00601e-05
674,707,-3.33845e-05,-2.24755e-05,-6.33949e-05,-5.37019e-05,-3.01902e-05,-1.42917e-05,-1.83879e-05,-2.97338e-05,-1.99134e-05,-2.26148e-05,-2.70735e-05,-1.49349e-05,-2.42562e-05,-2.65036e-05,-4.95299e-05,-6.17681e-05,-6.44421e-05,-5.38528e-05,-0.000104614,-6.63133e-05,-5.78979e-05,-7.34965e-05,-3.5806e-05,-3.62142e-06,-1.01911e-05,-1.08073e-05,-1.7189e-05,-1.60195e-05,-1.45776e-05,-1.52922e-05,-6.64739e-06,-1.23193e-05,-1.28222e-05
683,716,-3.20178e-05,-2.13523e-05,-4.96402e-05,-5.05534e-05,-2.72433e-05,-1.34593e-05,-1.85304e-05,-2.87997e-05,-1.81746e-05,-2.15831e-05,-2.4371e-05,-1.05206e-05,-2.44228e-05,-2.75704e-05,-4.36301e-05,-5.92086e-05,-6.09429e-05,-4.68433e-05,-0.00010297,-6.54099e-05,-5.33052e-05,-6.26609e-05,-3.28418e-05,-8.521e-06,-1.33269e-05,-1.1602e-05,-1.72702e-05,-1.72222e-05,-1.48359e-05,-1.27043e-05,-2.34424e-06,-1.6452e-05,-1.23013e-05
692,725,-3.01558e-05,-1.72554e-05,-4.00294e-05,-4.87518e-05,-2.55436e-05,-1.41346e-05,-1.51705e-05,-2.5529e-05,-1.59874e-05,-1.90516e-05,-1.80917e-05,-1.10601e-05,-1.99474e-05,-2.72992e-05,-4.44808e-05,-5.44038e-05,-5.75011e-05,-4.18684e-05,-9.75125e-05,-6.26287e-05,-5.37622e-05,-5.47753e-05,-3.23409e-05,-3.55041e-06,-1.23252e-05,-1.31714e-05,-1.99602e-05,-1.72013e-05,-1.40308e-05,-1.57483e-05,-7.60295e-06,-2.06026e-05,-9.63346e-06
701,734,-2.90256e-05,-1.70085e-05,-3.60254e-05,-4.64453e-05,-2.30648e-05,-1.42339e-05,-1.50493e-05,-2.17626e-05,-1.5075e-05,-1.96276e-05,-2.03219e-05,-8.28978e-06,-1.9777e-05,-2.73083e-05,-3.8888e-05,-5.15004e-05,-5.29119e-05,-3.71662e-05,-9.03381e-05,-5.98795e-05,-4.58639e-05,-4.66246e-05,-2.54107e-05,-6.05937e-06,-1.32869e-05,-1.19794e-05,-2.1923e-05,-1.91224e-05,-1.49154e-05,-1.34691e-05,-6.73048e-06,-2.18228e-05,-8.82506e-06
710,743,-2.40873e-05,-1.71761e-05,-3.34762e-05,-4.37695e-05,-2.11844e-05,-1.19583e-05,-1.16884e-05,-2.04341e-05,-1.6186e-05,-1.85077e-05,-1.92008e-05,-1.10356e-05,-1.68173e-05,-2.46825e-05,-3.71116e-05,-4.73527e-05,-4.83472e-05,-3.34073e-05,-8.09065e-05,-6.14766e-05,-4.23327e-05,-4.34724e-05,-2.50899e-05,-8.521e-06,-1.59182e-05,-1.16218e-05,-2.57022e-05,-2.1613e-05,-1.41458e-05,-1.10344e-05,-6.8849e-06,-2.07727e-05,-1.03149e-05
719,752,-2.15509e-05,-1.33848e-05,-3.19549e-05,-4.12235e-05,-2.33051e-05,-1.30577e-05,-1.31342e-05,-2.13944e-05,-1.2428e-05,-1.9634e-05,-1.97407e-05,-8.8285e-06,-2.13414e-05,-2.40146e-05,-3.46041e-05,-4.37268e-05,-4.53658e-05,-2.91472e-05,-6.86361e-05,-6.15805e-05,-4.16052e-05,-3.57233e-05,-1.87372e-05,-4.82856e-06,-1.42632e-05,-1.30184e-05,-2.88724e-05,-2.33297e-05,-1.15927e-05,-7.08145e-06,-8.82787e-06,-1.87646e-05,-5.92939e-06
728,761,-1.99255e-05,-1.21489e-05,-3.14929e-05,-3.70269e-05,-2.28647e-05,-1.10385e-05,-1.22419e-05,-1.86817e-05,-1.32983e-05,-1.8735e-05,-1.60295e-05,-8.80397e-06,-2.05827e-05,-2.24165e-05,-3.1967e-05,-3.86979e-05,-4.23113e-05,-2.88396e-05,-5.4424e-05,-6.04712e-05,-3.9303e-05,-3.36695e-05,-2.13634e-05,-2.84217e-14,-1.36307e-05,-1.27275e-05,-3.27778e-05,-2.63281e-05,-1.10406e-05,-1.48816e-05,-7.60295e-06,-1.74583e-05,-6.55704e-06
737,770,-1.65558e-05,-8.08532e-06,-3.6045e-05,-3.14531e-05,-2.5296e-05,-7.91987e-06,-1.17972e-05,-1.8009e-05,-1.17927e-05,-1.72796e-05,-1.29582e-05,-8.8285e-06,-1.82238e-05,-1.93397e-05,-2.87632e-05,-3.52557e-05,-3.70377e-05,-2.37413e-05,-4.3533e-05,-6.09031e-05,-3.65891e-05,-2.73356e-05,-1.54005e-05,-2.62731e-06,-1.59553e-05,-1.45819e-05,-3.75838e-05,-3.08632e-05,-8.28048e-06,-8.62457e-06,-8.10982e-06,-1.44062e-05,-6.78086e-06
746,779,-1.38129e-05,-8.71371e-06,-3.68028e-05,-2.67083e-05,-2.4691e-05,-1.17115e-05,-1.09961e-05,-1.92953e-05,-9.62064e-06,-1.45414e-05,-1.13073e-05,-8.50969e-06,-1.58459e-05,-1.70047e-05,-2.57117e-05,-3.15394e-05,-3.25785e-05,-2.34994e-05,-3.74887e-05,-5.89735e-05,-3.11547e-05,-2.64287e-05,-1.54005e-05,-5.77534e-06,-1.75721e-05,-1.64907e-05,-4.32955e-05,-3.6521e-05,-8.28048e-06,-7.50422e-06,-1.26505e-05,-1.38211e-05,-5.79355e-06
755,788,-1.21131e-05,-8.54614e-06,-3.33055e-05,-2.17146e-05,-2.623e-05,-9.01922e-06,-9.34665e-06,2.08423e-05,-9.85035e-06,-1.64233e-05,-1.31683e-05,-9.41706e-06,-1.57495e-05,-1.43891e-05,-2.41989e-05,-2.91269e-05,-2.93682e-05,-2.19517e-05,-3.14387e-05,-5.90256e-05,-2.87327e-05,-2.44418e-05,-1.51438e-05,-8.521e-06,-1.97515e-05,-1.69613e-05,-5.08065e-05,-4.37163e-05,-7.14927e-06,-1.12568e-05,-5.78669e-06,-1.30233e-05,-8.03985e-06
764,797,-1.3619e-05,-6.14073e-06,-2.87339e-05,-1.93714e-05,-2.75624e-05,-1.08141e-05,-8.06378e-06,-1.37205e-05,-1.3232e-05,-1.24242e-05,-1.08362e-05,-7.35708e-06,-1.33827e-05,-1.50137e-05,-2.08063e-05,-2.65631e-05,-2.63366e-05,-2.11446e-05,-2.64079e-05,-6.41192e-05,-2.54916e-05,-2.07065e-05,-1.45021e-05,-8.30797e-06,-1.96587e-05,-1.72619e-05,-5.96501e-05,-5.87029e-05,-3.50789e-06,-7.76793e-06,-6.73706e-06,-1.0489e-05,1.42109e-13
773,806,-8.97057e-06,-7.39408e-06,-2.25679e-05,-1.76493e-05,-2.66193e-05,-3.52243e-06,-1.02019e-05,-1.30281e-05,-9.91972e-06,-9.00404e-06,-7.34976e-06,-3.38426e-06,-9.12459e-06,-1.02019e-05,-1.89148e-05,-2.25282e-05,-2.31748e-05,-1.94868e-05,-2.11215e-05,-6.36242e-05,-2.51593e-05,-2.01086e-05,-1.15503e-05,-7.59789e-06,-2.27198e-05,-1.79195e-05,-7.0387e-05,-6.28995e-05,-8.18847e-06,-9.64754e-06,-7.34952e-06,-1.10288e-05,-7.64227e-06
782,815,-1.13349e-05,-7.54071e-06,-1.74748e-05,-1.85874e-05,-2.55384e-05,-9.78866e-06,-1.11339e-05,-1.15772e-05,-1.29909e-05,-8.37585e-06,-7.34976e-06,-7.936e-06,-8.89648e-06,-1.19889e-05,-1.60776e-05,-1.94469e-05,-2.07103e-05,-1.75039e-05,-2.10783e-05,-4.86764e-05,-2.25872e-05,-1.51661e-05,-1.36679e-05,-7.81091e-06,-2.47196e-05,-1.91815e-05,-8.29131e-05,-7.37644e-05,-3.72622e-06,-1.20702e-05,1.13687e-13,-9.33924e-06,-7.28887e-06
791,824,-1.00833e-05,-5.65553e-06,-1.4777e-05,-1.69856e-05,-2.38151e-05,-9.76402e-06,-7.0049e-06,-1.20892e-05,-1.25789e-05,-9.04523e-06,-1.00252e-05,-8.8285e-06,-9.0739e-06,-8.32811e-06,-1.46719e-05,-1.8813e-05,-1.83459e-05,-1.57835e-05,-1.58797e-05,-3.5963e-05,-2.15202e-05,-1.69046e-05,-1.28979e-05,-6.53276e-06,-2.57067e-05,-1.97329e-05,-9.57397e-05,-8.9664e-05,-7.33743e-06,-7.60991e-06,-2.47096e-06,-9.38463e-06,-5.34444e-06
800,833,-7.8353e-06,-4.92412e-06,-1.2193e-05,-1.25265e-05,-2.18645e-05,-7.83012e-06,-9.61137e-06,-9.23645e-06,-9.00656e-06,-8.29232e-06,-6.77435e-06,-6.39222e-06,-1.00383e-05,-7.44903e-06,-1.16755e-05,-1.70362e-05,-1.74702e-05,-1.50677e-05,-1.37262e-05,-2.92058e-05,-2.0161e-05,-1.15497e-05,-2.11756e-06,-6.24873e-06,-2.74437e-05,-1.90336e-05,-0.000110481,-0.000103951,-7.47543e-06,-7.39852e-06,-4.98416e-06,-7.67319e-06,-8.08402e-06
809,842,-5.25955e-06,-2.19937e-06,-1.01339e-05,-1.04158e-05,-2.04842e-05,-8.23397e-06,-1.19124e-05,-9.13101e-06,-1.36194e-05,-8.59897e-06,-7.96224e-06,-8.51492e-06,-1.2014e-05,-8.32811e-06,-1.33454e-05,-1.36922e-05,-1.51564e-05,-1.69967e-05,-1.758e-05,-2.37571e-05,-1.902e-05,-1.04487e-05,-1.09087e-05,-2.98235e-06,-2.87871e-05,-2.22836e-05,-0.00012566,-0.000121345,-4.32123e-06,-7.60991e-06,1.13687e-13,-8.44755e-06,-6.55704e-06
818,851,-6.5476e-07,-5.17136e-06,-8.57788e-06,-6.17378e-06,-2.02445e-05,-9.06998e-06,-7.16547e-06,-7.5916e-06,-7.77839e-06,-7.63133e-06,-6.95122e-06,-8.63231e-06,-7.21366e-06,-7.54157e-06,-9.70649e-06,-1.36867e-05,-1.19095e-05,-1.30446e-05,-1.15489e-05,-1.98711e-05,-1.78612e-05,-1.05288e-05,-1.54005e-05,-1.42109e-13,-2.92265e-05,-2.33743e-05,-0.000139658,-0.000134862,-3.31219e-06,-6.72209e-06,1.42109e-13,-3.04666e-06,-1.39151e-06
827,860,1.7053e-13,-2.6547e-06,-9.36683e-06,-5.18956e-06,-2.02068e-05,-1.26671e-05,-1.1657e-05,-6.11546e-06,-8.32424e-06,-7.28233e-06,-8.3627e-06,-4.85567e-06,-8.12737e-06,-8.32811e-06,-7.2145e-06,-1.0827e-05,-1.10894e-05,-1.17737e-05,-1.15489e-05,-1.78315e-05,-1.61054e-05,-8.08939e-06,-9.49694e-06,-5.58599e-06,-3.1695e-05,-2.42725e-05,-0.000147689,-0.000144606,-2.55795e-13,-8.54001e-06,0.0,-7.90785e-06,-6.64686e-06
836,869,-4.05737e-06,-7.06341e-06,-7.79555e-06,-3.42242e-06,-1.9204e-05,-8.07692e-06,-8.22802e-06,-1.19357e-05,-7.79242e-06,-7.84072e-06,-5.27675e-06,-8.34607e-06,-1.16845e-05,-2.49843e-06,-9.85671e-06,-1.2259e-05,-1.00931e-05,-1.32581e-05,-1.0638e-05,-1.39874e-05,-1.39392e-05,-3.60301e-06,-9.36861e-06,-6.01204e-06,-3.42128e-05,-2.52639e-05,-0.000156235,-0.000151584,-5.76919e-06,-7.73674e-06,-5.06864e-06,-4.78695e-06,-7.73798e-06
845,878,-4.65846e-06,-4.6501e-06,-5.53128e-06,8.52651e-14,-1.92938e-05,-7.79003e-06,-9.4952e-06,-7.5916e-06,-1.10785e-05,-5.21164e-06,-4.57004e-06,-3.60497e-06,-9.12459e-06,-4.20956e-06,-9.77058e-06,-9.39234e-06,-9.39187e-06,-1.11683e-05,-1.00411e-05,-1.15285e-05,-1.40289e-05,-7.80062e-06,2.84217e-14,-8.00027e-06,-3.7078e-05,-2.77048e-05,-0.000163669,-0.000158879,-7.59044e-06,-7.36456e-06,8.52651e-14,-1.12634e-06,-7.20825e-06
854,887,2.55795e-13,1.7053e-13,-5.93502e-06,-8.52651e-14,-1.74134e-05,-9.42932e-06,-1.0956e-05,-7.50725e-06,-8.32424e-06,-2.16376e-06,-8.48049e-06,-6.1309e-06,-9.12459e-06,-8.14607e-06,-6.09821e-06,-1.06892e-05,-1.06297e-05,-1.01704e-05,1.98952e-13,-1.20151e-05,-1.4504e-05,-7.00914e-06,2.84217e-14,-8.03209e-06,-4.06935e-05,-2.89069e-05,-0.000173152,-0.000165524,-2.55795e-13,-7.52536e-06,-4.98416e-06,-4.77772e-06,-9.04961e-06
863,896,-7.85712e-06,1.42109e-13,-6.69154e-06,-7.72273e-06,-1.58426e-05,-8.07692e-06,-1.15969e-05,-6.76918e-06,-1.10827e-05,-6.52218e-06,-8.33915e-06,-8.8285e-06,-7.90299e-06,-8.32811e-06,-7.25584e-06,-9.66133e-06,-9.00175e-06,-1.01064e-05,-9.90808e-06,-1.06481e-05,-1.52741e-05,-6.00501e-08,-1.15503e-06,-3.76344e-06,-4.1224e-05,-3.45877e-05,-0.000180928,-0.000170716,-4.36648e-06,-5.11555e-06,-5.68434e-14,-8.44755e-06,-8.08402e-06
872,905,3.12639e-13,-7.33124e-06,-6.15708e-06,-8.05276e-06,-1.63043e-05,-1.03198e-05,-9.50688e-06,-9.04666e-06,-1.06953e-05,-4.42059e-06,-8.48049e-06,-1.98952e-13,-8.23748e-06,-6.61622e-06,-1.13687e-13,-8.37847e-06,-6.56774e-06,-1.10872e-05,-1.15489e-05,-8.29724e-06,-1.46743e-05,-4.62682e-06,-1.15503e-05,-2.84217e-13,-4.83272e-05,-3.60552e-05,-0.000188927,-0.000178084,-3.41061e-13,-6.81981e-06,-5.61774e-06,-7.73205e-06,-6.24266e-06
881,914,3.97904e-13,2.27374e-13,1.42109e-13,-4.07112e-06,-1.54006e-05,-6.79807e-06,-1.23908e-05,-6.45286e-06,-8.32424e-06,-8.00969e-06,-7.89157e-06,-2.84217e-13,-7.60383e-06,0.0,-5.54834e-06,-7.30764e-06,-7.88129e-06,-8.50727e-06,8.52651e-14,-8.02066e-06,-1.28712e-05,-3.24862e-06,-6.19774e-06,-6.72212e-06,-4.63745e-05,-4.14488e-05,-0.000197104,-0.000184868,-2.84217e-13,-7.60991e-06,1.13687e-13,-8.16597e-06,-3.70518e-06
890,923,4.26326e-13,-4.01553e-06,-4.38822e-06,1.42109e-13,-1.35228e-05,-5.60897e-06,-1.04953e-05,-2.51913e-06,-8.057e-06,2.84217e-14,6.25278e-13,-2.27374e-13,-6.73167e-06,-2.84217e-14,-7.56592e-06,-5.60402e-06,-4.20335e-06,-8.62262e-06,-1.08431e-05,-1.03485e-05,-1.19936e-05,-4.36365e-06,-5.68434e-14,-8.23696e-06,-5.03267e-05,-4.51368e-05,-0.00020582,-0.000190081,-2.55795e-13,-6.67981e-06,-4.39282e-06,-8.04864e-06,-8.08402e-06
899,932,-1.26587e-06,-4.6501e-06,1.7053e-13,8.52651e-14,-8.10167e-06,-2.38335e-06,-8.21333e-06,-5.98893e-06,-9.49782e-06,-6.70068e-06,6.25278e-13,-6.47423e-06,-8.07751e-06,-5.30177e-06,-4.77177e-06,-8.06979e-06,-4.50052e-06,-5.55757e-06,1.42109e-13,-7.20908e-06,-1.20145e-05,-2.52211e-06,-1.98952e-13,-8.35531e-06,-5.45094e-05,-5.27277e-05,-0.000215776,-0.000193669,-4.55426e-06,-7.60991e-06,-2.84217e-14,-1.19674e-06,3.41061e-13
908,941,4.54747e-13,1.98952e-13,8.52651e-14,-4.65271e-06,-7.20149e-06,-8.07692e-06,-5.94869e-06,-2.30237e-06,-7.63397e-06,-5.68434e-14,-3.54512e-06,-8.63231e-06,-7.95285e-06,2.84217e-14,0.0,-6.41614e-06,-3.21819e-06,-6.28984e-06,-9.6872e-06,-7.7985e-06,-8.72338e-06,-6.60552e-07,-1.42109e-13,-5.44397e-06,-5.39479e-05,-5.80727e-05,-0.000223217,-0.000199449,-2.84217e-13,-3.88951e-06,0.0,-5.0216e-06,-6.25076e-06
917,950,3.97904e-13,-6.28392e-06,-7.10587e-06,-1.54345e-06,-1.7053e-13,-9.42307e-07,-2.9443e-06,-2.73796e-06,-1.01278e-05,-5.7235e-06,-1.74321e-06,-2.27374e-13,-2.84217e-14,-4.61004e-06,1.50009e-06,-1.98952e-13,-4.54747e-13,-4.64809e-06,2.84217e-14,-8.02066e-06,-7.15217e-06,1.7053e-13,-1.12937e-05,-8.521e-06,-5.14961e-05,-6.56445e-05,-0.000241296,-0.00020652,-3.41061e-13,-3.6802e-06,-8.44772e-08,-5.68434e-14,-2.51797e-06
926,959,-6.94046e-06,-3.22334e-06,1.42109e-13,-1.27502e-06,-5.34602e-06,-2.55795e-13,-5.26769e-06,3.69482e-13,-7.26059e-06,-8.52651e-14,5.11591e-13,-5.95803e-06,-9.12459e-06,2.84217e-14,6.65635e-06,-5.68434e-14,-5.40012e-13,-6.0609e-06,1.13687e-13,-5.07053e-06,-7.50155e-06,2.27374e-13,-3.2726e-06,-6.12301e-06,-5.68941e-05,-7.54891e-05,-0.000245085,-0.000197809,-2.27374e-13,-1.7053e-13,-1.80518e-06,0.0,-8.08402e-06
935,968,4.26326e-13,3.41061e-13,-3.91167e-06,-1.98952e-13,-1.98952e-13,-7.15705e-06,-1.98952e-13,3.69482e-13,-2.15043e-06,-1.42109e-13,4.83169e-13,-2.84217e-13,-5.68434e-14,2.84217e-14,-5.68434e-14,-1.42109e-13,-4.42228e-06,-3.77495e-07,2.84217e-14,-2.48917e-06,-5.76695e-06,-5.69e-06,-8.52651e-14,-6.82145e-06,-5.67766e-05,-7.96659e-05,-0.000240872,-0.000213524,-3.41061e-13,-2.84217e-13,-2.74551e-06,-2.04149e-06,1.3547e-07
944,977,3.97904e-13,3.41061e-13,5.68434e-14,-5.68434e-14,3.79357e-06,-1.98952e-13,-5.42793e-06,3.97904e-13,-1.43286e-06,-1.42109e-13,4.31092e-06,-6.97114e-06,-3.64984e-06,2.84217e-14,5.33335e-06,-5.68434e-14,-7.59668e-06,-1.13687e-13,2.84217e-14,-7.21399e-06,-3.2678e-06,-2.48076e-06,-1.52126e-05,-7.81091e-06,-4.85689e-05,-8.5602e-05,-0.000188094,-0.000189334,-2.55795e-13,-7.17016e-06,0.0,-7.41507e-06,3.43571e-06
953,986,-5.73183e-06,-3.97982e-06,5.68434e-14,-4.69745e-07,2.30211e-06,-5.25e-06,0.0,2.55795e-13,3.9036e-06,6.37495e-06,5.96856e-13,5.24805e-06,0.0,5.68434e-14,7.56592e-06,-8.52651e-14,-4.62972e-06,-7.12138e-06,2.84217e-14,-4.333e-06,-6.22663e-06,1.42109e-13,-8.52651e-14,-8.521e-06,-4.55349e-05,-8.8228e-05,-0.000147971,-0.000151005,-3.97904e-13,-1.42109e-13,2.84217e-14,-5.68434e-14,3.97904e-13
962,995,-7.83565e-06,2.84217e-13,8.52651e-14,-3.96038e-07,5.52901e-06,-3.87074e-06,4.23418e-06,8.04193e-06,3.06683e-06,2.84217e-14,5.68434e-13,-8.49079e-06,2.84217e-14,2.84217e-14,7.56592e-06,-1.13687e-13,-3.41061e-13,1.16569e-06,2.27374e-13,-7.91185e-06,-6.70002e-06,7.20603e-06,-1.13687e-13,5.68434e-14,-4.07737e-05,-8.94945e-05,-9.77537e-05,-9.43234e-05,-3.41061e-13,8.80929e-07,7.36332e-06,-5.68434e-14,8.08402e-06
964,1000,,,,,,,,,,,,,,,,,,,,,,,,,,,,,,,,,