File: output_data/TGA_Mass_binned_1C_T.csv
,Temperature,0,1,2,3,4,5,6,7,8,9,10,11,12,13,14,15,16,17,18,19,20,21,22,23,24,25,26,27,28,29,30,31,32
5,35,28.9865,30.506,30.9432,27.4724,31.5494,28.9445,31.7133,30.015,27.6257,28.1132,27.8226,26.7807,25.4702,30.1622,30.6622,28.7035,28.7859,28.936,19.856,28.1728,29.7016,31.4304,14.7506,26.6066,28.6041,31.075,30.3616,28.9865,28.1338,29.25,29.6213,27.23,27.192
11,41,28.9659,30.4995,30.9313,27.458,31.5345,28.9357,31.7037,30.0065,27.6186,28.102,27.8131,26.7687,25.4644,30.1231,30.6539,28.6804,28.7674,28.9339,19.8434,28.1435,29.6923,31.4231,14.741,26.598,28.5949,31.0717,30.3554,28.9814,28.1045,29.2486,29.6129,27.2098,27.1911
17,47,28.9281,30.4858,30.9098,27.4334,31.5078,28.9176,31.6848,29.9904,27.6039,28.0803,27.7939,26.7456,25.4508,30.0415,30.6378,28.6379,28.7342,28.9265,19.8196,28.0893,29.6761,31.4077,14.7233,26.5819,28.5773,31.0644,30.3439,28.9712,28.0521,29.2427,29.596,27.1724,27.1876
23,53,28.8599,30.46,30.8741,27.3961,31.4623,28.8851,31.6504,29.9616,27.5766,28.042,27.7598,26.705,25.4263,29.9054,30.6081,28.555,28.6778,28.9131,19.7792,27.9806,29.6489,31.3797,14.6936,26.5537,28.5451,31.051,30.3226,28.9518,27.9501,29.2308,29.5651,27.104,27.1795
29,59,28.7429,30.4161,30.8182,27.3445,31.3803,28.8289,31.5892,29.9136,27.5303,27.97185,27.7011,26.6307,25.3834,29.7142,30.5585,28.4212,28.5793,28.8914,19.7142,27.8262,29.6065,31.3326,14.6435,26.5069,28.4927,31.0289,30.286,28.9175,27.8063,29.2092,29.5139,26.987,27.16555
35,65,28.5874,30.3365,30.7248,27.2768,31.2579,28.7252,31.476,29.8263,27.4448,27.8501,27.5924,26.511,25.3047,29.4543,30.4654,28.239,28.4518,28.857,19.613,27.617,29.5421,31.2468,14.5698,26.4248,28.4049,30.9927,30.2283,28.8626,27.6185,29.1728,29.4252,26.8347,27.143
41,71,28.3917,30.2077,30.6023,27.1896,31.1031,28.57805,31.3217,29.6968,27.3147,27.6917,27.4397,26.351,25.1774,29.1119,30.3248,28.006,28.3035,28.8056,19.4884,27.3555,29.442,31.1171,14.4838,26.3048,28.2886,30.9344,30.1368,28.772,27.3895,29.1136,29.3031,26.6517,27.1087
47,77,28.1677,30.0301,30.4521,27.0918,30.9135,28.3765,31.1181,29.5269,27.1387,27.4877,27.228,26.1405,25.0011,28.6743,30.1282,27.7444,28.1365,28.7224,19.344,27.0855,29.3178,30.947,14.3885,26.1544,28.1501,30.8333,30.0227,28.6566,27.1305,29.015,29.1512,26.4416,27.0594
53,83,27.9411,29.7895,30.274,26.9884,30.6943,28.1092,30.8482,29.3111,26.9076,27.221,26.943,25.8644,24.7627,28.1354,29.8612,27.4845,27.9483,28.6059,19.1834,26.8066,29.1708,30.7331,14.2857,25.9737,27.9918,30.6967,29.89,28.5217,26.8474,28.8843,28.9727,26.2109,26.9859
59,89,27.7319,29.4782,30.0715,26.8853,30.4511,27.7658,30.5007,29.0535,26.6223,26.8748,26.5748,25.5137,24.4604,27.5087,29.5153,27.2212,27.7404,28.4589,19.014,26.5175,29.0024,30.482,14.1815,25.7675,27.8184,30.5276,29.7422,28.3718,26.56155,28.7213,28.7711,25.97,26.8826
65,95,27.5436,29.099,29.8545,26.7822,30.192,27.3468,30.0743,28.7602,26.301,26.4438,26.1285,25.0893,24.1041,26.824,29.0947,26.9573,27.5287,28.28,18.83965,26.2359,28.8179,30.2061,14.0779,25.5429,27.6359,30.3318,29.5819,28.2101,26.2926,28.5293,28.5548,25.7312,26.7582
71,101,27.37535,28.6884,29.6322,26.6791,29.9287,26.8654,29.5814,28.4437,25.9661,25.9436,25.6212,24.6089,23.7276,26.1428,28.6326,26.7083,27.3224,28.071,18.6676,25.9813,28.6216,29.9239,13.9781,25.307,27.453,30.1149,29.4126,28.0409,26.0373,28.3128,28.3321,25.5057,26.6131
77,107,27.22395,28.2853,29.4147,26.5755,29.6711,26.3632,29.0542,28.1181,25.6323,25.3963,25.0912,24.1015,23.3693,25.547,28.16965,26.4804,27.1238,27.8373,18.4999,25.7531,28.41965,29.64495,13.8831,25.069,27.2777,29.8843,29.2375,27.8684,25.8038,28.0802,28.1114,25.3009,26.4514
83,113,27.0887,27.9128,29.2101,26.47,29.4293,25.8789,28.5288,27.7973,25.3149,24.8219,24.5813,23.6052,23.0578,25.1266,27.7272,26.2738,26.9352,27.5876,18.3407,25.5505,28.216,29.3756,13.7946,24.8349,27.1186,29.6444,29.0608,27.6961,25.6035,27.8411,27.8979,25.1178,26.2774
89,119,26.9657,27.5883,29.0257,26.3603,29.2111,25.4531,28.0495,27.4917,25.0217,24.2673,24.14495,23.1731,22.7947,24.8446,27.3108,26.087,26.7577,27.3288,18.19245,25.3704,28.0155,29.1229,13.7122,24.6093,26.9803,29.4021,28.8864,27.5273,25.4332,27.6026,27.6963,24.9559,26.0967
95,125,26.8534,27.3255,28.8658,26.2471,29.0185,25.0974,27.6405,27.2079,24.7565,23.7925,23.8216,22.8262,22.5722,24.647,26.9472,25.9156,26.5911,27.068,18.0561,25.2085,27.8219,28.8874,13.6359,24.395,26.8641,29.1607,28.7177,27.3645,25.2848,27.3707,27.5088,24.8126,25.9132
101,131,26.7495,27.115,28.7304,26.1297,28.8505,24.80635,27.2991,26.9494,24.5175,23.4412,23.5872,22.5495,22.3859,24.498,26.6482,25.7572,26.43355,26.8105,17.93025,25.0619,27.6383,28.669,13.56505,24.1956,26.7682,28.9264,28.5577,27.2104,25.1534,27.1525,27.3364,24.6843,25.7339
107,137,26.6524,26.9427,28.6164,26.0122,28.7034,24.5648,27.0136,26.7162,24.3048,23.1884,23.4073,22.32685,22.2264,24.3771,26.3986,25.6097,26.2831,26.56055,17.8157,24.9293,27.4673,28.4684,13.4994,24.012,26.6896,28.7035,28.4088,27.0676,25.0343,26.9498,27.1772,24.5684,25.56155
113,143,26.5602,26.7977,28.5194,25.8975,28.5726,24.36335,26.7741,26.5086,24.1147,22.9965,23.2619,22.1436,22.0876,24.2725,26.1847,25.4704,26.1381,26.3221,17.7102,24.8085,27.3109,28.2845,13.43825,23.8441,26.621,28.4949,28.2733,26.9379,24.9251,26.7656,27.0321,24.4616,25.3985
119,149,26.4714,26.6723,28.4355,25.7887,28.4545,24.1897,26.5686,26.3232,23.94485,22.8439,23.1393,21.9884,21.9654,24.1778,25.9964,25.3375,25.9967,26.0976,17.6134,24.6986,27.1711,28.1162,13.3806,23.6917,26.5586,28.3039,28.1523,26.8212,24.8231,26.6015,26.897,24.3612,25.249
125,155,26.3842,26.5587,28.3612,25.6872,28.3463,24.0394,26.3901,26.1581,23.7925,22.7148,23.0315,21.8536,21.8556,24.0884,25.8267,25.2089,25.8571,25.8894,17.5244,24.5979,27.0483,27.965,13.3255,23.5538,26.5037,28.1311,28.0461,26.7182,24.7263,26.4553,26.7741,24.2647,25.1119
131,161,26.2976,26.4558,28.2916,25.5932,28.2445,23.9053,26.2317,26.01,23.654,22.6022,22.9355,21.7338,21.7539,24.0025,25.67125,25.0826,25.7174,25.6964,17.4414,24.5058,26.9411,27.828,13.2727,23.4285,26.4542,27.9797,27.9545,26.6294,24.6336,26.3247,26.661,24.1706,24.9867
137,167,26.2102,26.359,28.2258,25.5042,28.1464,23.7842,26.0895,25.8764,23.5281,22.499,22.8455,21.6248,21.659,23.9174,25.5256,24.9571,25.577,25.5202,17.3643,24.4214,26.8494,27.7046,13.2214,23.3149,26.4084,27.8479,27.8778,26.5522,24.5438,26.2087,26.5564,24.0769,24.875
143,173,26.1207,26.2677,28.164,25.4187,28.0517,23.672,25.9598,25.7544,23.4122,22.4032,22.7598,21.5235,21.5683,23.8328,25.3865,24.8329,25.4354,25.3586,17.2921,24.3434,26.7703,27.5928,13.1709,23.211,26.3645,27.7352,27.8093,26.4837,24.4569,26.1025,26.4592,23.9833,24.7735
149,179,26.029,26.1786,28.1054,25.331,27.9585,23.5666,25.8387,25.6416,23.304,22.3117,22.6761,21.4275,21.4802,23.7479,25.2521,24.7085,25.2924,25.2108,17.2222,24.2715,26.7001,27.4918,13.1217,23.116,26.3219,27.6403,27.749,26.4218,24.3718,26.0058,26.3674,23.8889,24.682
155,185,25.9341,26.0902,28.0492,25.2427,27.8663,23.4654,25.7242,25.5349,23.2012,22.2237,22.5917,21.3355,21.3935,23.6622,25.1216,24.5838,25.1506,25.0756,17.1562,24.2032,26.6344,27.3991,13.0739,23.029,26.2794,27.5609,27.6982,26.3685,24.2889,25.9157,26.2797,23.7938,24.597
161,191,25.8373,26.0024,27.9951,25.1499,27.7739,23.3663,25.6134,25.4344,23.1028,22.1353,22.5068,21.2446,21.307,23.575,24.9918,24.4603,25.0128,24.9525,17.0949,24.1398,26.5753,27.3128,13.0268,22.9492,26.2361,27.4919,27.6556,26.3224,24.2075,25.8319,26.1959,23.6989,24.5191
167,197,25.7383,25.9157,27.9431,25.0508,27.6815,23.2699,25.5045,25.3374,23.0073,22.04875,22.4187,21.1554,21.22,23.4865,24.8638,24.3407,24.8806,24.8387,17.0379,24.0816,26.5214,27.2327,12.9813,22.8756,26.1915,27.4303,27.6199,26.2821,24.1287,25.7519,26.1165,23.6062,24.4471
173,203,25.638,25.8297,27.8923,24.94345,27.589,23.1739,25.3984,25.2447,22.9129,21.963,22.3289,21.0687,21.1319,23.3966,24.7385,24.2296,24.7576,24.73605,16.9857,24.0279,26.4712,27.1573,12.9378,22.8055,26.1451,27.3765,27.5893,26.2464,24.0531,25.6759,26.0407,23.5178,24.3787
179,209,25.5362,25.746,27.8426,24.8216,27.4937,23.0813,25.2933,25.1542,22.8219,21.879,22.2374,20.985,21.0449,23.308,24.6172,24.1312,24.6487,24.6424,16.9373,23.9777,26.4231,27.0868,12.8965,22.7389,26.0967,27.3287,27.5628,26.2138,23.9819,25.604,25.9692,23.4339,24.3141
185,215,25.4301,25.6626,27.7934,24.6748,27.3932,22.9939,25.1922,25.0669,22.7344,21.7982,22.1468,20.9044,20.9612,23.2275,24.5026,24.0471,24.555,24.5566,16.8921,23.9301,26.3765,27.0211,12.857,22.6765,26.0464,27.285,27.5394,26.1837,23.9137,25.5351,25.9008,23.3543,24.2534
191,221,25.3106,25.579,27.7438,24.4884,27.2846,22.912,25.0974,24.9832,22.6532,21.7225,22.0582,20.8293,20.8817,23.1591,24.3977,23.9746,24.4737,24.4799,16.84905,23.884,26.3317,26.9603,12.819,22.6179,25.9948,27.244,27.5178,26.155,23.8508,25.4689,25.8368,23.2781,24.1967
197,227,25.1709,25.4853,27.6937,24.262,27.1657,22.836,25.0088,24.903,22.5763,21.6517,21.9751,20.75925,20.80385,23.0974,24.3076,23.906,24.4006,24.4086,16.8078,23.8387,26.2894,26.9056,12.7823,22.56245,25.9423,27.2043,27.4974,26.1271,23.7925,25.4061,25.7775,23.2044,24.1434
203,233,25.02035,25.3791,27.6428,24.0164,27.0365,22.7648,24.9272,24.8248,22.504,21.5856,21.9013,20.6932,20.7304,23.043,24.231,23.8419,24.3311,24.3414,16.7674,23.7936,26.25,26.8547,12.7464,22.5097,25.8894,27.1656,27.4775,26.0997,23.7371,25.346,25.7219,23.1326,24.093
209,239,24.8644,25.2642,27.591,23.7709,26.8921,22.6954,24.8498,24.7483,22.4344,21.5233,21.8335,20.6311,20.6585,22.9928,24.1609,23.7814,24.26375,24.2778,16.7274,23.7486,26.2131,26.8067,12.7109,22.459,25.8368,27.1276,27.4573,26.0724,23.6838,25.2871,25.6696,23.062,24.0452
215,245,24.6965,25.1376,27.5377,23.5258,26.7245,22.6295,24.7755,24.6728,22.3666,21.464,21.7697,20.571,20.5877,22.9447,24.0958,23.7229,24.1989,24.2173,16.6874,23.703,26.1784,26.7607,12.6758,22.4101,25.7846,27.0902,27.4368,26.04515,23.6316,25.2302,25.6196,22.9932,24.0002
221,251,24.50425,24.9888,27.4818,23.2737,26.5378,22.5651,24.7032,24.5993,22.3002,21.40655,21.7095,20.513,20.5199,22.8979,24.0341,23.6654,24.1353,24.1589,16.6475,23.6573,26.1454,26.7162,12.6409,22.3631,25.7332,27.0525,27.4158,26.0179,23.5805,25.1737,25.5713,22.9264,23.9569
227,257,24.27925,24.805,27.4231,23.0107,26.3522,22.5018,24.6318,24.5269,22.2347,21.3513,21.6517,20.4558,20.45475,22.8515,23.975,23.608,24.0722,24.1011,16.6071,23.6112,26.1137,26.6721,12.6062,22.3177,25.6831,27.0155,27.3946,25.9907,23.5293,25.118,25.5244,22.8617,23.9153
233,263,24.0312,24.5854,27.3618,22.7467,26.1817,22.4392,24.5616,24.4558,22.1693,21.2962,21.596,20.3994,20.3921,22.8049,23.9168,23.5503,24.0092,24.0447,16.5662,23.5646,26.0829,26.6288,12.5718,22.2744,25.6341,26.9791,27.3729,25.9636,23.4784,25.0626,25.4788,22.7992,23.8747
239,269,23.7971,24.3475,27.3003,22.5159,26.0304,22.3773,24.4921,24.3845,22.105,21.2416,21.541,20.3433,20.33065,22.7579,23.8588,23.4922,23.9459,23.9886,16.5245,23.5173,26.0529,26.5858,12.5374,22.2329,25.5863,26.9428,27.3511,25.9365,23.4278,25.007,25.4332,22.7388,23.8348
245,275,23.6254,24.1158,27.239,22.3664,25.9047,22.3156,24.4233,24.3147,22.0415,21.1877,21.4868,20.2876,20.2703,22.7109,23.8005,23.4332,23.8818,23.932,16.482,23.4699,26.0233,26.5428,12.5034,22.1933,25.5398,26.9073,27.3292,25.9097,23.3772,24.9515,25.3881,22.6803,23.7958
251,281,23.5207,23.9206,27.1748,22.2792,25.7992,22.2544,24.3542,24.2467,21.9782,21.134,21.433,20.2324,20.2103,22.6635,23.7422,23.3735,23.8171,23.8749,16.4387,23.4217,25.9939,26.4993,12.4695,22.1553,25.4946,26.8725,27.307,25.8832,23.3265,24.8961,25.3438,22.6236,23.7575
257,287,23.4387,23.7971,27.1002,22.204,25.6973,22.1938,24.2865,24.1791,21.9153,21.0807,21.3799,20.1771,20.1509,22.6162,23.6828,23.3126,23.7513,23.8173,16.3945,23.3722,25.9648,26.4557,12.4361,22.1188,25.4507,26.8383,27.2846,25.8571,23.2759,24.8404,25.2998,22.5689,23.7192
263,293,23.3605,23.7161,27.00995,22.1322,25.5974,22.1336,24.2192,24.1127,21.8536,21.0277,21.3269,20.1225,20.0923,22.5684,23.6226,23.251,23.6849,23.7586,16.3491,23.3215,25.9356,26.4114,12.4029,22.0843,25.4079,26.8052,27.2623,25.8313,23.2256,24.7849,25.2561,22.5162,23.6814
269,299,23.2849,23.6368,26.9087,22.0609,25.4994,22.0734,24.1522,24.0477,21.7928,20.9749,21.2744,20.0676,20.034,22.5203,23.5614,23.1884,23.6177,23.699,16.3029,23.2688,25.9063,26.3664,12.3702,22.0521,25.3664,26.7728,27.2401,25.8059,23.1752,24.7295,25.2125,22.4652,23.644
275,305,23.2118,23.559,26.7995,21.9903,25.4041,22.0141,24.0865,23.9841,21.7327,20.9226,21.2215,20.0139,19.9764,22.4716,23.499,23.1249,23.55,23.6376,16.2556,23.2133,25.8769,26.3209,12.33785,22.0225,25.3261,26.7415,27.218,25.7811,23.125,24.6743,25.1696,22.4162,23.6067
281,311,23.1393,23.4828,26.6871,21.9201,25.311,21.9554,24.0217,23.9219,21.6741,20.87065,21.1691,19.9602,19.9199,22.422,23.4356,23.0603,23.4816,23.5748,16.2074,23.1543,25.8472,26.2745,12.3061,21.9954,25.2869,26.7115,27.196,25.7566,23.0746,24.6192,25.1272,22.3689,23.5697
287,317,23.0673,23.4087,26.5751,21.8502,25.2206,21.8979,23.9578,23.861,21.6164,20.8194,21.1169,19.9078,19.86435,22.3715,23.3709,22.9939,23.41205,23.5104,16.1584,23.0907,25.817,26.2269,12.2749,21.9713,25.249,26.6822,27.1745,25.7327,23.0243,24.5644,25.0859,22.3234,23.5329
293,323,22.9959,23.3358,26.4659,21.7798,25.1322,21.8415,23.8956,23.8019,21.56,20.7689,21.0651,19.8561,19.81,22.3194,23.3043,22.9256,23.3413,23.4452,16.1086,23.0213,25.7861,26.1785,12.2445,21.9495,25.2122,26.654,27.1533,25.7094,22.9739,24.5104,25.0448,22.2795,23.4968
299,329,22.9237,23.26365,26.3592,21.7094,25.0462,21.7857,23.8341,23.74465,21.5049,20.7187,21.0138,19.8054,19.7566,22.2657,23.2359,22.8546,23.2681,23.3791,16.0583,22.9423,25.7543,26.1284,12.2148,21.9298,25.1765,26.6263,27.1326,25.6864,22.9233,24.4571,25.005,22.2372,23.4611
305,335,22.8511,23.1915,26.2561,21.63875,24.9626,21.731,23.7741,23.6885,21.4513,20.6695,20.9625,19.75525,19.70535,22.2103,23.1641,22.7794,23.1935,23.3123,16.00705,22.8569,25.7216,26.0772,12.1858,21.912,25.1419,26.5997,27.112,25.664,22.8722,24.4044,24.9662,22.1966,23.4259
311,341,22.7774,23.1195,26.1569,21.5677,24.8806,21.6771,23.7152,23.6344,21.3988,20.6209,20.9114,19.7067,19.6542,22.1535,23.0885,22.7008,23.1166,23.2437,15.955,22.7664,25.6876,26.0233,12.1574,21.8959,25.1084,26.574,27.0922,25.6424,22.821,24.3531,24.9277,22.1573,23.3912
317,347,22.7033,23.0494,26.0608,21.4968,24.8024,21.6247,23.6579,23.5819,21.3485,20.5728,20.8607,19.659,19.6051,22.0955,23.0086,22.6189,23.038,23.1751,15.9024,22.6693,25.6522,25.9675,12.13005,21.8815,25.0761,26.549,27.0729,25.6214,22.77,24.3022,24.8908,22.1196,23.3575
323,353,22.6293,22.9795,25.9683,21.42695,24.7258,21.5741,23.6027,23.5312,21.29965,20.5256,20.81,19.6119,19.5567,22.0376,22.9257,22.5339,22.958,23.1052,15.849,22.5665,25.6147,25.9083,12.1035,21.8687,25.0451,26.5245,27.0543,25.6009,22.7198,24.2528,24.8544,22.087,23.3246
329,359,22.5566,22.9111,25.8798,21.3584,24.6512,21.5244,23.5487,23.482,21.2526,20.479,20.76,19.566,19.5095,21.9814,22.8396,22.4466,22.8773,23.0345,15.7946,22.456,25.5748,25.8444,12.078,21.8573,25.0152,26.5009,27.0364,25.5811,22.6709,24.2043,24.8196,22.0451,23.2931
335,365,22.4851,22.8442,25.7945,21.292,24.5793,21.4765,23.4961,23.4349,21.2073,20.4339,20.7106,19.522,19.4638,21.9272,22.7516,22.3581,22.7964,22.9641,15.74,22.3387,25.5321,25.7739,12.0534,21.847,24.9867,26.4781,27.0191,25.562,22.6242,24.1575,24.7858,22.0164,23.2622
341,371,22.4154,22.7786,25.7123,21.2282,24.50845,21.4301,23.4454,23.3897,21.1644,20.3898,20.6624,19.479,19.4193,21.8761,22.6616,22.2695,22.7167,22.8914,15.685,22.216,25.4861,25.6953,12.0297,21.8378,24.9595,26.4559,27.0024,25.5435,22.5797,24.1121,24.7529,21.9858,23.2325
347,377,22.3486,22.7143,25.6325,21.1676,24.4404,21.3853,23.3966,23.3464,21.123,20.3473,20.6155,19.4376,19.3763,21.8287,22.5724,22.1827,22.639,22.8186,15.6302,22.0891,25.4357,25.6087,12.0072,21.8297,24.9338,26.4343,26.9863,25.5259,22.5377,24.0678,24.7221,21.9567,23.2041
353,383,22.2853,22.6514,25.5544,21.1104,24.3747,21.3426,23.3501,23.3045,21.0833,20.3063,20.5699,19.3981,19.3348,21.7847,22.4853,22.0987,22.5643,22.7455,15.5763,21.958,25.38,25.5129,11.98585,21.8224,24.9095,26.4133,26.9708,25.5085,22.4983,24.0254,24.693,21.92925,23.177
359,389,22.2254,22.5898,25.4785,21.057,24.3108,21.3017,23.3056,23.2647,21.0457,20.2676,20.5262,19.3605,19.2946,21.7438,22.4013,22.0186,22.492,22.672,15.52365,21.8249,25.3168,25.4069,11.9655,21.8159,24.8867,26.393,26.9559,25.4921,22.4612,23.9848,24.6653,21.9034,23.1512
365,395,22.1693,22.53,25.4041,21.007,24.2498,21.2629,23.2626,23.227,21.0102,20.2306,20.4839,19.3252,19.2565,21.7056,22.3207,21.9424,22.4216,22.5982,15.4732,21.6939,25.2415,25.2911,11.9463,21.81,24.8654,26.3735,26.9416,25.4761,22.4261,23.9452,24.6391,21.879,23.1263
371,401,22.1165,22.4725,25.3315,20.96,24.191,21.2257,23.2222,23.1911,20.9763,20.1953,20.4427,19.2915,19.2196,21.6696,22.2448,21.8705,22.3534,22.5259,15.4255,21.5715,25.1509,25.1625,11.928,21.8047,24.8454,26.3551,26.9279,25.4608,22.3931,23.9073,24.6149,21.8561,23.1029
377,407,22.0664,22.4175,25.2604,20.9155,24.1345,21.1905,23.1836,23.1567,20.9444,20.1614,20.4036,19.26,19.1841,21.6357,22.1729,21.8007,22.2878,22.4543,15.3802,21.4648,25.0471,25.0225,11.9108,21.7999,24.8269,26.3374,26.9144,25.4461,22.3614,23.8711,24.5919,21.8345,23.0809
383,413,22.0191,22.3647,25.1911,20.8735,24.08,21.1574,23.1473,23.1242,20.914,20.1295,20.3654,19.2303,19.15,21.6032,22.1045,21.7343,22.2247,22.3864,15.3383,21.3755,24.9281,24.87,11.8944,21.7953,24.8097,26.3207,26.9018,25.432,22.3311,23.8371,24.5702,21.8141,23.0602
389,419,21.9741,22.3144,25.1251,20.8337,24.0281,21.1258,23.1122,23.0933,20.8852,20.0985,20.3279,19.2022,19.1173,21.572,22.0394,21.6714,22.1638,22.3214,15.299,21.3003,24.7925,24.7057,11.8786,21.7912,24.7938,26.3051,26.8895,25.4186,22.3019,23.8042,24.5494,21.7946,23.0408
395,425,21.9314,22.2664,25.0619,20.796,23.9779,21.0956,23.0792,23.0635,20.8578,20.0694,20.2916,19.176,19.0857,21.5421,21.9777,21.6119,22.1058,22.2601,15.2618,21.2322,24.6408,24.5326,11.8635,21.7875,24.7792,26.2905,26.8776,25.4058,22.2737,23.7731,24.5294,21.7761,23.0223
401,431,21.8906,22.2206,25.0018,20.7605,23.9296,21.0672,23.0477,23.0354,20.8309,20.0413,20.2551,19.1507,19.0549,21.513,21.9195,21.5553,22.0498,22.2024,15.2272,21.1684,24.4728,24.357,11.8489,21.784,24.766,26.2762,26.8663,25.3937,22.2466,23.7431,24.5104,21.7583,23.0051
407,437,21.8513,22.1771,24.9446,20.7267,23.8834,21.0394,23.0176,23.0085,20.8051,20.0142,20.2191,19.127,19.0244,21.4851,21.8643,21.5017,21.9965,22.149,15.194,21.1091,24.2921,24.1867,11.8347,21.7809,24.7538,26.263,26.8554,25.3821,22.2201,23.7148,24.4923,21.74115,22.9891
413,443,21.814,22.135,24.8899,20.6946,23.8388,21.0131,22.9882,22.9826,20.7799,19.9881,20.1832,19.104,18.9949,21.4579,21.8125,21.4512,21.9455,22.0989,15.1628,21.05255,24.1053,24.032,11.8209,21.778,24.7426,26.251,26.845,25.371,22.1945,23.6873,24.4741,21.7245,22.9738
419,449,21.7781,22.0947,24.8375,20.664,23.7958,20.9869,22.9594,22.9576,20.7552,19.9628,20.1472,19.0824,18.9661,21.4317,21.7632,21.4033,21.8969,22.0518,15.1328,20.9979,23.9218,23.8985,11.8071,21.7749,24.7325,26.2395,26.8346,25.3605,22.1698,23.6606,24.4563,21.7081,22.9597
425,455,21.7438,22.0561,24.7872,20.6345,23.7544,20.9613,22.9311,22.9336,20.7306,19.9376,20.111,19.0613,18.9377,21.4057,21.7166,21.3576,21.8504,22.0074,15.1041,20.9451,23.7505,23.78595,11.7937,21.772,24.7234,26.2285,26.825,25.3506,22.1457,23.6352,24.4396,21.6922,22.9462
431,461,21.7113,22.0179,24.7389,20.60625,23.7141,20.9358,22.9031,22.9099,20.706,19.9132,20.0751,19.0402,18.9101,21.3807,21.6724,21.3142,21.8059,21.9658,15.0762,20.894,23.5987,23.6923,11.7802,21.769,24.7154,26.2184,26.8157,25.3413,22.1226,23.6104,24.42325,21.6765,22.9332
437,467,21.6798,21.981,24.6923,20.579,23.6756,20.9104,22.8755,22.8878,20.6812,19.889,20.0392,19.02,18.8832,21.3565,21.6301,21.2726,21.7629,21.9262,15.0493,20.844,23.4679,23.6112,11.7668,21.767,24.7084,26.2092,26.8072,25.3324,22.1002,23.5861,24.4079,21.6611,22.9206
443,473,21.6501,21.9453,24.6474,20.5527,23.6381,20.8849,22.8478,22.8657,20.6562,19.8651,20.0043,19.0004,18.8568,21.3331,21.5897,21.2326,21.7214,21.8886,15.0229,20.7954,23.3553,23.5377,11.7532,21.764,24.70215,26.2005,26.7988,25.3241,22.0785,23.5627,24.3927,21.6459,22.9089
449,479,21.6222,21.9098,24.604,20.5274,23.6015,20.85945,22.8196,22.844,20.6314,19.8417,19.9701,18.9803,18.831,21.3103,21.5509,21.1939,21.6811,21.8527,14.9973,20.7481,23.2579,23.4691,11.7398,21.762,24.6965,26.1926,26.791,25.3162,22.0576,23.5397,24.3784,21.6309,22.8973
455,485,21.5959,21.8759,24.5623,20.5029,23.5662,20.8337,22.7915,22.8225,20.6066,19.8184,19.9368,18.961,18.8058,21.2881,21.5133,21.1564,21.6419,21.8181,14.9721,20.7023,23.1722,23.4051,11.7259,21.7593,24.6914,26.1853,26.7834,25.3088,22.0374,23.5176,24.3647,21.6158,22.8863
461,491,21.5709,21.8422,24.5222,20.4792,23.5319,20.8079,22.7639,22.801,20.5819,19.7959,19.9051,18.9421,18.7817,21.2666,21.477,21.1197,21.6036,21.7848,14.9472,20.6577,23.0966,23.3456,11.712,21.757,24.6867,26.1784,26.7765,25.3019,22.018,23.4957,24.352,21.6007,22.8758
467,497,21.5468,21.8096,24.4837,20.4561,23.4988,20.7827,22.7362,22.7799,20.5573,19.7736,19.8739,18.9233,18.7588,21.2458,21.4419,21.0836,21.566,21.7527,14.9227,20.6146,23.0268,23.2897,11.6979,21.755,24.6822,26.1722,26.7696,25.2955,21.9994,23.475,24.3396,21.5858,22.8655
473,503,21.5241,21.7777,24.4467,20.4339,23.4671,20.7572,22.709,22.759,20.5329,19.7519,19.8442,18.905,18.7369,21.2257,21.4071,21.0482,21.529,21.7213,14.8986,20.5726,22.9613,23.2372,11.6836,21.753,24.6781,26.1664,26.7631,25.2894,21.9815,23.4552,24.3281,21.5706,22.8558
479,509,21.5024,21.7462,24.4113,20.4126,23.4364,20.7324,22.6816,22.7386,20.5091,19.7308,19.8161,18.8872,18.7163,21.2066,21.3739,21.0129,21.4926,21.6899,14.8745,20.5319,22.9011,23.1871,11.6692,21.751,24.6742,26.1608,26.7569,25.2836,21.9642,23.4355,24.31745,21.5555,22.8463
485,515,21.4815,21.7154,24.3772,20.3921,23.4071,20.7082,22.6549,22.7185,20.486,19.7108,19.79,18.87,18.6966,21.188,21.3412,20.9781,21.4567,21.6592,14.8508,20.4924,22.8452,23.1393,11.6547,21.749,24.6704,26.156,26.7507,25.278,21.9478,23.417,24.3074,21.5402,22.8371
491,521,21.4613,21.6853,24.3442,20.3724,23.3787,20.6853,22.6292,22.6988,20.4637,19.6913,19.7651,18.8534,18.6784,21.1705,21.3085,20.9433,21.4214,21.6292,14.8273,20.4543,22.7925,23.0936,11.64,21.747,24.6666,26.1511,26.7446,25.2728,21.9319,23.3991,24.2976,21.525,22.8283
497,527,21.4416,21.656,24.3126,20.3534,23.351,20.6629,22.6049,22.6796,20.4424,19.6732,19.7416,18.8377,18.6617,21.1537,21.2769,20.9088,21.3864,21.5992,14.8041,20.4176,22.7422,23.0502,11.6255,21.7458,24.663,26.147,26.7389,25.2678,21.9168,23.3821,24.289,21.51,22.8195
503,533,21.4217,21.6281,24.2815,20.3353,23.3242,20.642,22.5822,22.661,20.4221,19.6556,19.7196,18.8228,18.6456,21.1376,21.2458,20.8747,21.3516,21.5691,14.7814,20.382,22.6939,23.0105,11.6111,21.744,24.66,26.143,26.7333,25.263,21.9022,23.366,24.2802,21.4951,22.8108
509,539,21.4022,21.602,24.2513,20.3178,23.298,20.6219,22.5608,22.6429,20.4031,19.6389,19.6991,18.8087,18.6314,21.1226,21.2151,20.8412,21.3169,21.5394,14.759,20.3476,22.6471,22.9738,11.5971,21.7421,24.657,26.1385,26.7282,25.2583,21.8883,23.3513,24.2727,21.4804,22.8025
515,545,21.3827,21.5777,24.2219,20.3007,23.2724,20.603,22.5407,22.6257,20.3853,19.6232,19.6798,18.7954,18.6179,21.1085,21.1847,20.808,21.2829,21.5099,14.737,20.314,22.6015,22.9389,11.5835,21.741,24.6545,26.134,26.723,25.254,21.8752,23.3373,24.2659,21.4661,22.7947
521,551,21.3629,21.5556,24.1929,20.2843,23.2476,20.5858,22.5228,22.60925,20.3688,19.6083,19.6621,18.7837,18.6059,21.0951,21.1553,20.7755,21.2493,21.4801,14.7156,20.2813,22.5569,22.9041,11.5705,21.739,24.652,26.129,26.7176,25.2495,21.8628,23.3246,24.2595,21.45225,22.7872
527,557,21.3426,21.5354,24.1644,20.2684,23.2237,20.5701,22.5059,22.5939,20.3531,19.5945,19.6458,18.7727,18.5947,21.0828,21.1264,20.7436,21.2161,21.4495,14.6948,20.2488,22.5135,22.8702,11.5582,21.7371,24.65,26.125,26.712,25.245,21.8511,23.3129,24.254,21.439,22.7797
533,563,21.3221,21.5169,24.1366,20.2529,23.2006,20.5558,22.491,22.5791,20.3392,19.5817,19.6302,18.7629,18.5847,21.0713,21.0981,20.7125,21.1836,21.4184,14.6745,20.2172,22.4715,22.8358,11.54675,21.736,24.648,26.121,26.7057,25.2405,21.8403,23.3019,24.249,21.4264,22.7728
539,569,21.3015,21.4989,24.1098,20.238,23.1784,20.5431,22.4774,22.5649,20.3262,19.5702,19.6161,18.754,18.5754,21.0604,21.0708,20.6817,21.1518,21.3869,14.6549,20.186,22.4311,22.8018,11.5363,21.734,24.646,26.11775,26.6982,25.2358,21.8301,23.2921,24.2441,21.4145,22.7663
545,575,21.2807,21.4816,24.084,20.2234,23.1572,20.531,22.4653,22.5522,20.3147,19.5598,19.6026,18.7459,18.5665,21.0504,21.0441,20.6519,21.121,21.3557,14.636,20.1555,22.3922,22.7676,11.5266,21.732,24.644,26.1142,26.6889,25.2305,21.8206,23.2833,24.2401,21.4033,22.7601
551,581,21.2602,21.4645,24.0594,20.2092,23.137,20.5207,22.4545,22.5406,20.3039,19.5498,19.5899,18.7385,18.5584,21.0406,21.0184,20.6227,21.0908,21.3251,14.6178,20.1254,22.3551,22.7331,11.5177,21.73,24.6421,26.1113,26.6794,25.225,21.8116,23.2747,24.2367,21.3927,22.7544
557,587,21.24,21.4477,24.0364,20.1954,23.1181,20.5115,22.4445,22.5299,20.2942,19.541,19.578,18.7317,18.5509,21.0315,20.9931,20.5941,21.0614,21.2947,14.6004,20.0956,22.31945,22.6985,11.5099,21.728,24.6409,26.1087,26.6713,25.2194,21.8035,23.2677,24.234,21.3831,22.7493
563,593,21.2209,21.4312,24.0148,20.1819,23.1002,20.5028,22.4353,22.5201,20.2852,19.5325,19.5667,18.7254,18.5442,21.02295,20.9683,20.5662,21.0325,21.2651,14.584,20.0661,22.2856,22.6632,11.5028,21.726,24.639,26.106,26.6649,25.2143,21.7955,23.2609,24.231,21.3742,22.7445
569,599,21.2029,21.4151,23.9945,20.1688,23.0835,20.4952,22.4265,22.5102,20.2766,19.5245,19.5558,18.7196,18.5376,21.0143,20.944,20.5388,21.0043,21.236,14.5681,20.0369,22.25335,22.6279,11.4962,21.724,24.637,26.1036,26.6593,25.21,21.7879,23.2546,24.2281,21.3657,22.74
575,605,21.1863,21.3997,23.9755,20.1558,23.0679,20.4882,22.4185,22.5014,20.2689,19.5173,19.5454,18.7142,18.5316,21.006,20.9207,20.5123,20.9768,21.2074,14.5531,20.0078,22.2225,22.5922,11.4902,21.722,24.6353,26.101,26.6543,25.2057,21.7807,23.2487,24.226,21.3582,22.7353
581,611,21.1715,21.3858,23.9575,20.143,23.0533,20.4816,22.4111,22.493,20.2615,19.5104,19.5353,18.7093,18.5255,20.9979,20.8978,20.4866,20.9505,21.179,14.539,19.9791,22.1932,22.5568,11.4847,21.72,24.634,26.099,26.65,25.2018,21.7738,23.2432,24.224,21.3512,22.7318
587,617,21.1581,21.3726,23.9403,20.1304,23.0394,20.4753,22.4036,22.4846,20.2545,19.5036,19.52565,18.7046,18.52,20.9902,20.8756,20.4619,20.9251,21.1509,14.5255,19.951,22.165,22.5212,11.4794,21.718,24.632,26.097,26.6458,25.198,21.7673,23.238,24.2228,21.345,22.7277
593,623,21.1467,21.3613,23.9238,20.1179,23.0265,20.4701,22.3965,22.4766,20.2478,19.4972,19.5163,18.7,18.515,20.9825,20.8549,20.4384,20.9009,21.1235,14.5126,19.9238,22.1378,22.4858,11.4745,21.716,24.6308,26.095,26.6417,25.1941,21.7611,23.2336,24.221,21.3393,22.724
599,629,21.1366,21.3512,23.9079,20.1056,23.0139,20.465,22.3896,22.4687,20.2414,19.4906,19.5074,18.696,18.5094,20.9752,20.8343,20.416,20.8778,21.0967,14.5001,19.8977,22.1117,22.4508,11.47,21.7142,24.629,26.093,26.638,25.191,21.7552,23.2292,24.219,21.3342,22.721
605,635,21.1282,21.3424,23.8923,20.0934,23.0021,20.46,22.3833,22.4614,20.2352,19.4846,19.4986,18.692,18.504,20.968,20.8152,20.3947,20.856,21.0705,14.4878,19.8728,22.0866,22.4163,11.4653,21.713,24.627,26.091,26.634,25.1874,21.7499,23.225,24.218,21.33,22.7178
611,641,21.1204,21.3342,23.8771,20.0813,22.9911,20.4551,22.3769,22.4541,20.2291,19.479,19.4901,18.6886,18.4993,20.9613,20.7969,20.3746,20.8354,21.0461,14.4757,19.8495,22.0625,22.383,11.461,21.711,24.6255,26.089,26.6309,25.184,21.7447,23.221,24.2165,21.326,22.715
617,647,21.1135,21.3272,23.8624,20.0695,22.9805,20.451,22.3712,22.4469,20.223,19.4733,19.482,18.6846,18.4948,20.9549,20.7797,20.3556,20.8161,21.0225,14.4637,19.8279,22.04,22.3509,11.457,21.71,24.624,26.0878,26.6275,25.181,21.74,23.217,24.215,21.323,22.7124
623,653,21.1071,21.3205,23.848,20.058,22.9705,20.4467,22.3657,22.4403,20.2179,19.4676,19.4745,18.6818,18.4902,20.9486,20.7632,20.3379,20.7981,21.0007,14.4515,19.8081,22.0187,22.3209,11.4527,21.709,24.622,26.0857,26.6241,25.1781,21.7358,23.214,24.2145,21.3204,22.71
629,659,21.101,21.3145,23.834,20.0468,22.9612,20.443,22.3597,22.43345,20.2121,19.462,19.4671,18.678,18.486,20.9427,20.7485,20.3211,20.7815,20.9812,14.4392,19.7897,21.9991,22.2935,11.4486,21.7072,24.6205,26.084,26.6214,25.1757,21.7319,23.21,24.213,21.318,22.708
635,665,21.0953,21.3087,23.8202,20.0361,22.9524,20.4391,22.3545,22.42655,20.207,19.4567,19.4603,18.676,18.4815,20.9369,20.735,20.3055,20.7662,20.9623,14.4269,19.7729,21.9809,22.2681,11.4446,21.706,24.619,26.082,26.6185,25.173,21.728,23.207,24.212,21.316,22.705
641,671,21.0895,21.303,23.8067,20.0256,22.9443,20.4359,22.3493,22.4204,20.202,19.4516,19.4542,18.6735,18.4775,20.9316,20.7222,20.2909,20.752,20.9457,14.41425,19.7575,21.9639,22.2452,11.4406,21.705,24.617,26.08,26.616,25.1704,21.725,23.204,24.212,21.3144,22.703
647,677,21.0839,21.2982,23.7932,20.0155,22.9363,20.4323,22.3449,22.4142,20.198,19.4463,19.448,18.671,18.4731,20.9265,20.7106,20.2774,20.7388,20.9306,14.4022,19.7432,21.9484,22.2239,11.437,21.704,24.6154,26.078,26.613,25.168,21.722,23.2005,24.211,21.313,22.701
653,683,21.0782,21.2932,23.78,20.0057,22.9292,20.4296,22.3407,22.4084,20.194,19.442,19.4429,18.6686,18.4693,20.9216,20.6996,20.2648,20.7264,20.9173,14.3902,19.7301,21.934,22.2046,11.433,21.7022,24.614,26.076,26.6103,25.1654,21.719,23.1975,24.21,21.3111,22.699
659,689,21.0726,21.289,23.7665,19.9964,22.9225,20.4268,22.3367,22.4027,20.1904,19.4371,19.4376,18.6663,18.4652,20.9169,20.6894,20.253,20.7145,20.9054,14.3784,19.7177,21.921,22.187,11.4294,21.701,24.612,26.074,26.6079,25.163,21.7161,23.1949,24.209,21.31,22.6975
665,695,21.0669,21.2849,23.753,19.9874,22.9161,20.424,22.3328,22.3975,20.187,19.4338,19.433,18.66455,18.4618,20.9122,20.6799,20.2419,20.7034,20.8946,14.3667,19.706,21.9091,22.1711,11.426,21.7,24.61,26.0728,26.605,25.1606,21.714,23.192,24.208,21.3089,22.6958
671,701,21.061,21.281,23.7399,19.9784,22.9103,20.422,22.3291,22.392,20.184,19.4298,19.4286,18.663,18.458,20.908,20.6707,20.2314,20.6924,20.8848,14.355,19.6951,21.898,22.1564,11.423,21.699,24.6083,26.071,26.602,25.158,21.711,23.19,24.207,21.307,22.694
677,707,21.0558,21.277,23.728,19.9697,22.905,20.4192,22.326,22.387,20.181,19.426,19.4245,18.661,18.454,20.9038,20.6622,20.2215,20.6817,20.8757,14.3435,19.6845,21.8876,22.1429,11.4198,21.698,24.6063,26.069,26.5992,25.1557,21.709,23.187,24.206,21.3052,22.692
683,713,21.0502,21.2738,23.7176,19.96155,22.8998,20.417,22.323,22.3821,20.178,19.4228,19.4209,18.6594,18.451,20.8995,20.6539,20.2118,20.6715,20.867,14.3319,19.6743,21.878,22.1306,11.417,21.697,24.6045,26.067,26.59625,25.153,21.7067,23.1843,24.205,21.303,22.69
689,719,21.045,21.27,23.7088,19.9536,22.895,20.415,22.32,22.3773,20.175,19.4193,19.417,18.658,18.4472,20.8952,20.6465,20.2024,20.6615,20.8591,14.3205,19.6642,21.8689,22.1194,11.414,21.696,24.6021,26.065,26.5932,25.15,21.7041,23.182,24.2044,21.3007,22.688
695,725,21.04,21.267,23.7014,19.9457,22.8903,20.413,22.317,22.3728,20.172,19.416,19.414,18.656,18.4444,20.891,20.6386,20.1935,20.6522,20.8515,14.3095,19.6544,21.8601,22.1092,11.4117,21.695,24.6001,26.0626,26.59,25.1474,21.702,23.1796,24.2037,21.2976,22.6867
701,731,21.035,21.264,23.6946,19.9381,22.886,20.411,22.315,22.369,20.17,19.4131,19.4112,18.6547,18.4417,20.887,20.6316,20.1849,20.6429,20.8447,14.2989,19.6446,21.8513,22.0996,11.409,21.694,24.598,26.0609,26.5863,25.1443,21.7,23.177,24.203,21.2943,22.685
707,737,21.0302,21.261,23.6882,19.9307,22.8819,20.409,22.312,22.3652,20.1678,19.4101,19.4081,18.653,18.439,20.8828,20.625,20.1767,20.6343,20.8384,14.2888,19.6354,21.8435,22.0913,11.407,21.693,24.596,26.0586,26.5824,25.141,21.6978,23.1747,24.202,21.291,22.6837
713,743,21.026,21.2585,23.6822,19.9235,22.8779,20.407,22.31,22.3616,20.1653,19.4074,19.4053,18.652,18.436,20.87875,20.6184,20.169,20.6262,20.8326,14.2793,19.6256,21.8361,22.0838,11.405,21.6923,24.5937,26.056,26.5781,25.138,21.6953,23.1726,24.201,21.288,22.682
719,749,21.022,21.256,23.6764,19.9167,22.874,20.405,22.308,22.358,20.163,19.4047,19.4028,18.65,18.433,20.875,20.6122,20.1616,20.6184,20.8271,14.2707,19.6162,21.8289,22.0763,11.403,21.692,24.591,26.054,26.5736,25.134,21.6934,23.1701,24.2,21.285,22.681
725,755,21.0184,21.254,23.6708,19.9101,22.8699,20.403,22.3056,22.3544,20.161,19.4017,19.3998,18.649,18.43,20.8713,20.6064,20.1547,20.6109,20.8221,14.2631,19.6066,21.8217,22.0699,11.4015,21.691,24.5888,26.0518,26.5685,25.1302,21.6916,23.1689,24.198,21.282,22.6799
731,761,21.015,21.252,23.6653,19.904,22.8659,20.4018,22.303,22.351,20.159,19.3983,19.3971,18.648,18.427,20.868,20.6007,20.1482,20.6038,20.817,14.2565,19.5974,21.8149,22.0634,11.4,21.69,24.586,26.049,26.563,25.126,21.69,23.1669,24.1978,21.2797,22.678
737,767,21.012,21.25,23.6594,19.8985,22.8619,20.4,22.301,22.348,20.157,19.3958,19.3946,18.646,18.4248,20.865,20.5959,20.1422,20.5974,20.8124,14.2508,19.5877,21.8083,22.058,11.398,21.689,24.5834,26.0462,26.5572,25.1213,21.688,23.1648,24.1967,21.277,22.677
743,773,21.0093,21.248,23.653,19.8936,22.8573,20.39815,22.299,22.345,20.1551,19.393,19.3926,18.645,18.422,20.862,20.5909,20.1366,20.5914,20.8084,14.2459,19.5784,21.8021,22.053,11.397,21.6884,24.5808,26.0436,26.5506,25.1161,21.687,23.163,24.195,21.275,22.676
749,779,21.007,21.247,23.6465,19.8892,22.853,20.396,22.297,22.3417,20.154,19.391,19.3909,18.644,18.4199,20.859,20.586,20.1312,20.5858,20.804,14.2417,19.5692,21.7966,22.0484,11.3952,21.688,24.578,26.041,26.5434,25.1103,21.6851,23.161,24.194,21.273,22.675
755,785,21.0045,21.246,23.6401,19.8851,22.8484,20.394,22.2959,22.338,20.152,19.3886,19.389,18.6423,18.418,20.856,20.5816,20.1262,20.5805,20.8001,14.2379,19.5598,21.7915,22.0438,11.394,21.687,24.575,26.038,26.5355,25.1037,21.684,23.16,24.192,21.271,22.674
761,791,21.0024,21.244,23.6343,19.8818,22.8437,20.3927,22.294,22.333,20.1507,19.386,19.387,18.641,18.4158,20.854,20.5775,20.1217,20.5758,20.7965,14.2341,19.5506,21.7867,22.0394,11.393,21.686,24.5717,26.035,26.5265,25.0963,21.683,23.158,24.191,21.269,22.673
767,797,21.0001,21.243,23.629,19.8785,22.8389,20.391,22.2924,22.332,20.149,19.384,19.385,18.64,18.414,20.8516,20.574,20.1174,20.5713,20.793,14.231,19.541,21.782,22.0356,11.392,21.685,24.568,26.032,26.5165,25.0847,21.682,23.156,24.19,21.267,22.672
773,803,20.9983,21.242,23.6243,19.875,22.834,20.3898,22.291,22.3294,20.147,19.3821,19.3834,18.639,18.412,20.8494,20.5703,20.1135,20.5675,20.7899,14.2281,19.5303,21.778,22.03195,11.391,21.685,24.565,26.0288,26.5056,25.0774,21.681,23.155,24.189,21.266,22.671
779,809,20.997,21.241,23.6203,19.8722,22.8291,20.389,22.289,22.327,20.1456,19.381,19.382,18.6382,18.411,20.848,20.567,20.11,20.5639,20.7864,14.226,19.5204,21.7736,22.0282,11.39,21.684,24.5611,26.0255,26.4933,25.0669,21.68,23.153,24.188,21.264,22.67
785,815,20.995,21.2397,23.617,19.8694,22.8246,20.387,22.287,22.325,20.144,19.3792,19.381,18.637,18.41,20.846,20.564,20.1064,20.5602,20.7831,14.2237,19.5122,21.7698,22.0253,11.389,21.683,24.5573,26.022,26.4797,25.0552,21.679,23.152,24.188,21.263,22.669
791,821,20.994,21.239,23.614,19.867,22.82,20.3855,22.2851,22.323,20.143,19.378,19.38,18.636,18.408,20.844,20.561,20.1031,20.557,20.7802,14.221,19.5054,21.766,22.023,11.388,21.683,24.5531,26.0187,26.4641,25.0417,21.678,23.15,24.187,21.262,22.668
797,827,20.992,21.238,23.6115,19.8641,22.8158,20.384,22.284,22.321,20.141,19.3766,19.378,18.635,18.407,20.843,20.5587,20.1001,20.554,20.7777,14.2193,19.4998,21.7623,22.02,11.387,21.682,24.549,26.015,26.4473,25.0267,21.677,23.149,24.1863,21.26,22.667
803,833,20.991,21.237,23.609,19.862,22.8117,20.382,22.282,22.3197,20.1393,19.375,19.377,18.634,18.405,20.841,20.5567,20.0979,20.5513,20.775,14.2175,19.495,21.759,22.018,11.386,21.681,24.5446,26.0116,26.4286,25.01,21.676,23.147,24.186,21.259,22.6655
809,839,20.991,21.236,23.607,19.8608,22.8077,20.381,22.2804,22.3175,20.138,19.374,19.376,18.633,18.404,20.84,20.5544,20.095,20.549,20.7728,14.216,19.4909,21.7556,22.016,11.385,21.6807,24.54,26.008,26.4082,24.9915,21.676,23.146,24.185,21.258,22.664
815,845,20.99,21.2354,23.605,19.859,22.804,20.3795,22.2781,22.316,20.136,19.3724,19.375,18.632,18.4021,20.839,20.552,20.093,20.5464,20.77,14.214,19.487,21.7522,22.014,11.384,21.68,24.5352,26.004,26.3861,24.9712,21.675,23.145,24.185,21.257,22.663
821,851,20.989,21.235,23.6034,19.858,22.8,20.3774,22.277,22.3146,20.135,19.371,19.374,18.631,18.401,20.838,20.551,20.091,20.5442,20.768,14.2128,19.484,21.749,22.012,11.3832,21.679,24.5306,26.0,26.3622,24.9494,21.674,23.144,24.185,21.256,22.662
827,857,20.988,21.234,23.602,19.857,22.7968,20.377,22.275,22.313,20.133,19.37,19.373,18.6299,18.399,20.837,20.549,20.0887,20.542,20.766,14.211,19.481,21.746,22.0106,11.383,21.678,24.5255,25.996,26.3372,24.926,21.673,23.1423,24.184,21.255,22.661
833,863,20.988,21.2334,23.6,19.856,22.793,20.375,22.273,22.312,20.132,19.369,19.372,18.6288,18.398,20.836,20.548,20.087,20.5402,20.764,14.21,19.478,21.7433,22.009,11.382,21.677,24.5204,25.9916,26.3111,24.9018,21.673,23.141,24.184,21.254,22.66
839,869,20.987,21.2324,23.599,19.856,22.7899,20.374,22.272,22.31,20.13,19.368,19.371,18.627,18.396,20.835,20.546,20.085,20.539,20.762,14.209,19.476,21.741,22.008,11.381,21.677,24.515,25.9872,26.2841,24.8767,21.672,23.14,24.183,21.253,22.659
845,875,20.987,21.232,23.597,19.855,22.7867,20.372,22.2699,22.308,20.129,19.367,19.371,18.6268,18.395,20.834,20.5449,20.083,20.537,20.76,14.208,19.4739,21.7381,22.007,11.38,21.676,24.5091,25.9826,26.2561,24.8508,21.672,23.1381,24.183,21.252,22.658
851,881,20.986,21.231,23.596,19.855,22.7831,20.371,22.268,22.307,20.127,19.366,19.37,18.626,18.394,20.833,20.543,20.0815,20.5355,20.758,14.207,19.472,21.736,22.0056,11.38,21.675,24.503,25.9776,26.2274,24.8241,21.671,23.137,24.183,21.2517,22.657
857,887,20.986,21.231,23.595,19.854,22.78,20.369,22.266,22.306,20.1257,19.365,19.3695,18.625,18.3921,20.833,20.542,20.08,20.534,20.75655,14.206,19.47,21.733,22.004,11.379,21.674,24.4964,25.9725,26.1978,24.7968,21.671,23.136,24.182,21.251,22.656
863,893,20.986,21.23,23.594,19.854,22.777,20.368,22.265,22.304,20.124,19.364,19.369,18.624,18.391,20.832,20.541,20.0788,20.533,20.755,14.205,19.4686,21.7306,22.003,11.378,21.6739,24.49,25.9668,26.1669,24.7687,21.671,23.135,24.182,21.25,22.655
869,899,20.985,21.23,23.593,19.853,22.774,20.367,22.263,22.303,20.1221,19.363,19.368,18.623,18.39,20.831,20.54,20.077,20.531,20.753,14.204,19.467,21.728,22.003,11.3778,21.673,24.4832,25.9606,26.1351,24.7401,21.67,23.134,24.182,21.249,22.654
875,905,20.985,21.229,23.592,19.8527,22.771,20.366,22.261,22.3017,20.121,19.362,19.3671,18.622,18.388,20.831,20.539,20.076,20.53,20.752,14.203,19.4655,21.7257,22.002,11.377,21.672,24.4758,25.9543,26.1023,24.7104,21.67,23.133,24.182,21.248,22.653
881,911,20.984,21.229,23.591,19.852,22.769,20.365,22.26,22.3,20.119,19.361,19.367,18.621,18.387,20.83,20.539,20.075,20.529,20.7502,14.203,19.464,21.723,22.001,11.376,21.671,24.4678,25.9475,26.0684,24.6803,21.669,23.132,24.181,21.248,22.6529
887,917,20.984,21.229,23.591,19.851,22.7664,20.364,22.258,22.299,20.118,19.36,19.366,18.621,18.386,20.83,20.538,20.074,20.528,20.749,14.203,19.463,21.721,22.0001,11.3752,21.67,24.4603,25.9402,26.0338,24.6493,21.669,23.131,24.181,21.247,22.652
893,923,20.984,21.229,23.59,19.851,22.7642,20.363,22.256,22.298,20.116,19.36,19.366,18.62,18.386,20.829,20.5379,20.073,20.527,20.748,14.202,19.462,21.719,22.0,11.375,21.67,24.4523,25.9322,25.998,24.6177,21.669,23.13,24.18,21.246,22.6519
899,929,20.983,21.228,23.589,19.85,22.7622,20.3616,22.255,22.297,20.115,19.36,19.365,18.62,18.385,20.829,20.537,20.072,20.526,20.746,14.202,19.461,21.717,21.999,11.374,21.669,24.4436,25.9236,25.9613,24.5857,21.669,23.129,24.18,21.246,22.651
905,935,20.983,21.227,23.589,19.85,22.761,20.361,22.253,22.296,20.1135,19.359,19.365,18.619,18.384,20.828,20.536,20.071,20.525,20.745,14.202,19.46,21.715,21.9983,11.374,21.668,24.4346,25.9142,25.9233,24.5532,21.668,23.128,24.18,21.2457,22.651
911,941,20.983,21.227,23.588,19.849,22.7597,20.361,22.252,22.295,20.112,19.359,19.365,18.618,18.384,20.828,20.536,20.071,20.525,20.744,14.201,19.459,21.714,21.998,11.373,21.668,24.4254,25.9041,25.8847,24.5205,21.668,23.127,24.18,21.245,22.65
917,947,20.982,21.227,23.588,19.849,22.758,20.36,22.251,22.2947,20.111,19.359,19.364,18.618,18.383,20.8279,20.536,20.07,20.524,20.743,14.201,19.458,21.7129,21.998,11.373,21.667,24.418,25.8934,25.8443,24.4868,21.668,23.127,24.18,21.244,22.65
923,953,20.982,21.226,23.587,19.8486,22.758,20.3598,22.2502,22.294,20.1096,19.358,19.364,18.618,18.383,20.827,20.536,20.07,20.524,20.742,14.201,19.457,21.711,21.998,11.372,21.666,24.4096,25.8816,25.8019,24.4522,21.668,23.126,24.18,21.244,22.6494
929,959,20.982,21.226,23.587,19.848,22.757,20.359,22.25,22.293,20.108,19.358,19.364,18.618,18.383,20.827,20.536,20.069,20.523,20.741,14.201,19.456,21.71,21.997,11.372,21.665,24.4005,25.8688,25.7586,24.4191,21.668,23.125,24.179,21.243,22.6497
935,965,20.981,21.225,23.587,19.847,22.757,20.359,22.249,22.293,20.107,19.358,19.364,18.618,18.382,20.827,20.537,20.069,20.523,20.741,14.201,19.455,21.71,21.997,11.371,21.665,24.3915,25.8548,25.7161,24.3851,21.668,23.124,24.179,21.2425,22.65
941,971,20.981,21.225,23.586,19.847,22.757,20.358,22.249,22.293,20.1065,19.358,19.364,18.618,18.382,20.827,20.537,20.069,20.522,20.7409,14.201,19.4544,21.709,21.996,11.371,21.664,24.3823,25.8405,25.6738,24.3493,21.668,23.124,24.179,21.242,22.6499
947,977,20.98,21.225,23.586,19.846,22.7571,20.358,22.248,22.293,20.106,19.358,19.364,18.617,18.381,20.827,20.538,20.069,20.521,20.74,14.201,19.454,21.708,21.996,11.371,21.663,24.3739,25.8259,25.634,24.3151,21.668,23.123,24.18,21.2417,22.65
953,983,20.98,21.225,23.586,19.8451,22.758,20.359,22.248,22.294,20.1058,19.3583,19.365,18.617,18.381,20.827,20.539,20.069,20.521,20.74,14.201,19.453,21.708,21.996,11.37,21.663,24.3662,25.81,25.6034,24.286,21.668,23.123,24.18,21.241,22.65
959,989,20.979,21.224,23.586,19.845,22.7586,20.358,22.248,22.294,20.106,19.359,19.365,18.618,18.381,20.827,20.54,20.069,20.52,20.739,14.201,19.452,21.707,21.996,11.37,21.662,24.3588,25.7942,25.5773,24.2606,21.668,23.123,24.18,21.241,22.65
965,995,20.978,21.224,23.586,19.844,22.759,20.358,22.248,22.295,20.106,19.359,19.365,18.618,18.381,20.827,20.5412,20.069,20.52,20.74,14.202,19.451,21.707,21.9962,11.37,21.662,24.3518,25.7784,25.5569,24.2415,21.668,23.122,24.18,21.241,22.6504
970,1000,,,,,,,,,,,,,,,,,,,,,,,,,,,,,,,,,